File: pydatalab/example_data/TGA/20221128 134958 TGA MS Megan.asc
Sourcefile	20221128 134958 TGA MS Megan.qmp
Exporttime	28/11/2022 15:24:02

Start Time	28/11/2022 13:51:12
End Time	28/11/2022 15:21:44

		14			16			Water			Nitrogen/Carbonmonoxide			Oxygen			Argon			Carbondioxide
Time	Time Relative [s]	Partial Pressure [mbar]	Time	Time Relative [s]	Partial Pressure [mbar]	Time	Time Relative [s]	Partial Pressure [mbar]	Time	Time Relative [s]	Partial Pressure [mbar]	Time	Time Relative [s]	Partial Pressure [mbar]	Time	Time Relative [s]	Partial Pressure [mbar]	Time	Time Relative [s]	Partial Pressure [mbar]
28/11/2022 13:51:12	0.000	1.083137e-011	28/11/2022 13:51:12	0.222	8.512007e-012	28/11/2022 13:51:12	0.445	-1.415928e-013	28/11/2022 13:51:13	1.536	3.765051e-013	28/11/2022 13:51:14	2.628	2.359224e-013	28/11/2022 13:51:15	2.860	8.967970e-015	28/11/2022 13:51:16	3.951	7.596080e-014
28/11/2022 13:51:48	35.994	1.056462e-011	28/11/2022 13:51:48	36.208	8.917232e-012	28/11/2022 13:51:48	36.432	1.019924e-013	28/11/2022 13:51:49	37.471	3.249922e-013	28/11/2022 13:51:50	38.512	1.545529e-013	28/11/2022 13:51:50	38.726	7.341077e-014	28/11/2022 13:51:51	39.764	4.555533e-014
28/11/2022 13:52:23	71.807	1.079954e-011	28/11/2022 13:52:24	72.019	8.856375e-012	28/11/2022 13:52:24	72.239	4.710805e-014	28/11/2022 13:52:25	73.281	3.311180e-013	28/11/2022 13:52:26	74.322	1.677975e-013	28/11/2022 13:52:26	74.535	4.333572e-014	28/11/2022 13:52:27	75.576	4.364313e-014
28/11/2022 13:52:59	107.635	1.064078e-011	28/11/2022 13:53:00	107.849	8.722049e-012	28/11/2022 13:53:00	108.067	9.643373e-014	28/11/2022 13:53:01	109.107	3.409476e-013	28/11/2022 13:53:02	110.147	1.650090e-013	28/11/2022 13:53:02	110.361	5.961414e-014	28/11/2022 13:53:03	111.402	4.006545e-014
28/11/2022 13:53:35	143.478	1.078450e-011	28/11/2022 13:53:35	143.691	8.875770e-012	28/11/2022 13:53:36	143.904	1.041989e-013	28/11/2022 13:53:37	144.944	3.404058e-013	28/11/2022 13:53:38	145.986	1.729758e-013	28/11/2022 13:53:38	146.200	5.164312e-014	28/11/2022 13:53:39	147.239	4.105641e-014
28/11/2022 13:54:11	179.276	1.075252e-011	28/11/2022 13:54:11	179.488	9.231723e-012	28/11/2022 13:54:11	179.706	9.623960e-014	28/11/2022 13:54:12	180.746	3.399376e-013	28/11/2022 13:54:13	181.787	1.366659e-013	28/11/2022 13:54:14	182.000	6.017115e-014	28/11/2022 13:54:15	183.042	3.525735e-014
28/11/2022 13:54:47	215.089	1.094267e-011	28/11/2022 13:54:47	215.302	8.654172e-012	28/11/2022 13:54:47	215.520	6.802283e-014	28/11/2022 13:54:48	216.561	3.230514e-013	28/11/2022 13:54:49	217.601	1.760542e-013	28/11/2022 13:54:49	217.814	3.727650e-014	28/11/2022 13:54:51	218.855	3.461575e-014
28/11/2022 13:55:23	250.887	1.058746e-011	28/11/2022 13:55:23	251.100	9.182085e-012	28/11/2022 13:55:23	251.317	9.940902e-014	28/11/2022 13:55:24	252.357	3.377300e-013	28/11/2022 13:55:25	253.396	1.512999e-013	28/11/2022 13:55:25	253.609	5.355725e-014	28/11/2022 13:55:26	254.650	3.967422e-014
28/11/2022 13:55:58	286.678	1.051122e-011	28/11/2022 13:55:59	286.890	8.936949e-012	28/11/2022 13:55:59	287.108	1.212521e-013	28/11/2022 13:56:00	288.149	3.378310e-013	28/11/2022 13:56:01	289.191	1.516683e-013	28/11/2022 13:56:01	289.403	3.242825e-014	28/11/2022 13:56:02	290.444	4.048647e-014
28/11/2022 13:56:34	322.492	1.070358e-011	28/11/2022 13:56:34	322.705	8.937563e-012	28/11/2022 13:56:35	322.923	1.000708e-013	28/11/2022 13:56:36	323.965	3.350401e-013	28/11/2022 13:56:37	325.005	1.472985e-013	28/11/2022 13:56:37	325.218	5.975006e-014	28/11/2022 13:56:38	326.260	4.310784e-014
28/11/2022 13:57:10	358.325	1.094234e-011	28/11/2022 13:57:10	358.538	8.710415e-012	28/11/2022 13:57:10	358.757	1.037130e-013	28/11/2022 13:57:11	359.795	3.273150e-013	28/11/2022 13:57:12	360.836	1.537931e-013	28/11/2022 13:57:13	361.049	4.558619e-014	28/11/2022 13:57:14	362.092	4.236078e-014
28/11/2022 13:57:46	394.152	1.034367e-011	28/11/2022 13:57:46	394.365	9.139160e-012	28/11/2022 13:57:46	394.577	9.727903e-014	28/11/2022 13:57:47	395.617	3.293389e-013	28/11/2022 13:57:48	396.659	1.609577e-013	28/11/2022 13:57:49	396.871	2.473736e-014	28/11/2022 13:57:50	397.912	3.765107e-014
28/11/2022 13:58:22	429.951	1.083914e-011	28/11/2022 13:58:22	430.164	9.132651e-012	28/11/2022 13:58:22	430.384	8.198872e-014	28/11/2022 13:58:23	431.424	3.607571e-013	28/11/2022 13:58:24	432.464	1.490472e-013	28/11/2022 13:58:24	432.676	5.095425e-014	28/11/2022 13:58:25	433.718	3.735080e-014
28/11/2022 13:58:57	465.753	1.079248e-011	28/11/2022 13:58:58	465.966	8.891291e-012	28/11/2022 13:58:58	466.183	8.968762e-014	28/11/2022 13:58:59	467.223	3.306589e-013	28/11/2022 13:59:00	468.263	1.433897e-013	28/11/2022 13:59:00	468.477	3.414240e-014	28/11/2022 13:59:01	469.519	3.309559e-014
28/11/2022 13:59:33	501.554	1.048474e-011	28/11/2022 13:59:33	501.768	9.061764e-012	28/11/2022 13:59:34	501.981	7.871469e-014	28/11/2022 13:59:35	503.022	3.416198e-013	28/11/2022 13:59:36	504.063	1.571970e-013	28/11/2022 13:59:36	504.276	5.229377e-014	28/11/2022 13:59:37	505.316	4.188628e-014
28/11/2022 14:00:09	537.355	1.071847e-011	28/11/2022 14:00:09	537.567	9.077546e-012	28/11/2022 14:00:09	537.786	9.859218e-014	28/11/2022 14:00:10	538.827	3.450875e-013	28/11/2022 14:00:12	539.867	1.664991e-013	28/11/2022 14:00:12	540.080	3.457440e-014	28/11/2022 14:00:13	541.121	3.807934e-014
28/11/2022 14:00:45	573.151	1.048795e-011	28/11/2022 14:00:45	573.364	8.878829e-012	28/11/2022 14:00:45	573.583	8.162290e-014	28/11/2022 14:00:46	574.625	3.380015e-013	28/11/2022 14:00:47	575.665	1.432451e-013	28/11/2022 14:00:48	575.878	3.489491e-014	28/11/2022 14:00:49	576.919	3.858794e-014
28/11/2022 14:01:21	608.961	1.078554e-011	28/11/2022 14:01:21	609.174	9.175229e-012	28/11/2022 14:01:21	609.387	1.325344e-013	28/11/2022 14:01:22	610.427	3.445662e-013	28/11/2022 14:01:23	611.467	1.515589e-013	28/11/2022 14:01:23	611.680	6.732539e-014	28/11/2022 14:01:24	612.720	4.443238e-014
28/11/2022 14:01:56	644.749	1.111343e-011	28/11/2022 14:01:57	644.962	9.309707e-012	28/11/2022 14:01:57	645.180	9.518878e-014	28/11/2022 14:01:58	646.221	3.355238e-013	28/11/2022 14:01:59	647.264	1.454615e-013	28/11/2022 14:01:59	647.476	5.062386e-014	28/11/2022 14:02:00	648.516	4.033781e-014
28/11/2022 14:02:32	680.574	1.085930e-011	28/11/2022 14:02:32	680.788	9.039981e-012	28/11/2022 14:02:33	681.006	7.524930e-014	28/11/2022 14:02:34	682.046	3.550386e-013	28/11/2022 14:02:35	683.085	1.571365e-013	28/11/2022 14:02:35	683.298	3.200472e-014	28/11/2022 14:02:36	684.339	4.237659e-014
28/11/2022 14:03:08	716.388	1.080008e-011	28/11/2022 14:03:08	716.602	8.710228e-012	28/11/2022 14:03:08	716.821	8.773972e-014	28/11/2022 14:03:10	717.863	3.175824e-013	28/11/2022 14:03:11	718.905	1.409187e-013	28/11/2022 14:03:11	719.119	3.439883e-014	28/11/2022 14:03:12	720.159	4.047126e-014
28/11/2022 14:03:44	752.193	1.076197e-011	28/11/2022 14:03:44	752.405	9.104758e-012	28/11/2022 14:03:44	752.619	8.569960e-014	28/11/2022 14:03:45	753.661	3.433443e-013	28/11/2022 14:03:46	754.702	1.435110e-013	28/11/2022 14:03:47	754.924	3.926588e-014	28/11/2022 14:03:48	755.964	3.315554e-014
28/11/2022 14:04:20	788.015	1.055216e-011	28/11/2022 14:04:20	788.228	8.818153e-012	28/11/2022 14:04:20	788.440	9.366347e-014	28/11/2022 14:04:21	789.482	3.285958e-013	28/11/2022 14:04:22	790.522	1.559027e-013	28/11/2022 14:04:22	790.735	5.096815e-014	28/11/2022 14:04:23	791.774	3.831532e-014
28/11/2022 14:04:55	823.810	1.064122e-011	28/11/2022 14:04:56	824.024	8.777115e-012	28/11/2022 14:04:56	824.242	6.391660e-014	28/11/2022 14:04:57	825.281	3.407211e-013	28/11/2022 14:04:58	826.321	1.605571e-013	28/11/2022 14:04:58	826.534	5.070223e-014	28/11/2022 14:04:59	827.576	4.079673e-014
28/11/2022 14:05:31	859.631	1.061757e-011	28/11/2022 14:05:32	859.845	9.144300e-012	28/11/2022 14:05:32	860.064	7.576370e-014	28/11/2022 14:05:33	861.103	3.052409e-013	28/11/2022 14:05:34	862.146	1.593266e-013	28/11/2022 14:05:34	862.360	5.636102e-014	28/11/2022 14:05:35	863.399	3.873553e-014
28/11/2022 14:06:07	895.443	1.094549e-011	28/11/2022 14:06:07	895.656	9.053313e-012	28/11/2022 14:06:08	895.869	8.144462e-014	28/11/2022 14:06:09	896.911	3.318308e-013	28/11/2022 14:06:10	897.951	1.384093e-013	28/11/2022 14:06:10	898.164	4.655666e-014	28/11/2022 14:06:11	899.205	3.613176e-014
28/11/2022 14:06:43	931.256	1.071595e-011	28/11/2022 14:06:43	931.469	9.065465e-012	28/11/2022 14:06:43	931.683	1.164690e-013	28/11/2022 14:06:44	932.725	3.157760e-013	28/11/2022 14:06:45	933.767	1.369421e-013	28/11/2022 14:06:46	933.980	5.017667e-014	28/11/2022 14:06:47	935.021	3.284336e-014
28/11/2022 14:07:19	967.054	1.103499e-011	28/11/2022 14:07:19	967.267	9.082947e-012	28/11/2022 14:07:19	967.485	1.076695e-013	28/11/2022 14:07:20	968.525	3.307317e-013	28/11/2022 14:07:21	969.566	1.572684e-013	28/11/2022 14:07:21	969.778	4.851290e-014	28/11/2022 14:07:22	970.818	3.989560e-014
28/11/2022 14:07:55	1002.867	1.063330e-011	28/11/2022 14:07:55	1003.079	8.966679e-012	28/11/2022 14:07:55	1003.297	1.074007e-013	28/11/2022 14:07:56	1004.338	3.013912e-013	28/11/2022 14:07:57	1005.378	1.748781e-013	28/11/2022 14:07:57	1005.598	6.682041e-014	28/11/2022 14:07:58	1006.640	3.686758e-014
28/11/2022 14:08:30	1038.676	1.074159e-011	28/11/2022 14:08:31	1038.890	8.649504e-012	28/11/2022 14:08:31	1039.109	7.369867e-014	28/11/2022 14:08:32	1040.152	3.268163e-013	28/11/2022 14:08:33	1041.191	1.551229e-013	28/11/2022 14:08:33	1041.409	5.040721e-014	28/11/2022 14:08:34	1042.452	3.887429e-014
28/11/2022 14:09:06	1074.488	1.052057e-011	28/11/2022 14:09:06	1074.701	9.242018e-012	28/11/2022 14:09:07	1074.919	7.725954e-014	28/11/2022 14:09:08	1075.959	3.059041e-013	28/11/2022 14:09:09	1077.000	1.230354e-013	28/11/2022 14:09:09	1077.213	4.338509e-014	28/11/2022 14:09:10	1078.254	3.772435e-014
28/11/2022 14:09:42	1110.292	1.074609e-011	28/11/2022 14:09:42	1110.504	8.776294e-012	28/11/2022 14:09:42	1110.724	1.028527e-013	28/11/2022 14:09:43	1111.764	3.270942e-013	28/11/2022 14:09:44	1112.805	1.340845e-013	28/11/2022 14:09:45	1113.018	4.431497e-014	28/11/2022 14:09:46	1114.058	3.583521e-014
28/11/2022 14:10:18	1146.095	1.065943e-011	28/11/2022 14:10:18	1146.307	9.455816e-012	28/11/2022 14:10:18	1146.525	7.315776e-014	28/11/2022 14:10:19	1147.567	2.953751e-013	28/11/2022 14:10:20	1148.606	1.608874e-013	28/11/2022 14:10:20	1148.819	3.684832e-014	28/11/2022 14:10:22	1149.861	3.825435e-014
28/11/2022 14:10:54	1181.900	1.045826e-011	28/11/2022 14:10:54	1182.113	8.633648e-012	28/11/2022 14:10:54	1182.326	9.447197e-014	28/11/2022 14:10:55	1183.366	3.343824e-013	28/11/2022 14:10:56	1184.407	1.435227e-013	28/11/2022 14:10:56	1184.621	5.858779e-014	28/11/2022 14:10:57	1185.661	3.759656e-014
28/11/2022 14:11:29	1217.712	1.058237e-011	28/11/2022 14:11:30	1217.926	9.018000e-012	28/11/2022 14:11:30	1218.145	9.937241e-014	28/11/2022 14:11:31	1219.185	3.225039e-013	28/11/2022 14:11:32	1220.229	1.506306e-013	28/11/2022 14:11:32	1220.442	5.238340e-014	28/11/2022 14:11:33	1221.481	3.662723e-014
28/11/2022 14:12:05	1253.505	1.093220e-011	28/11/2022 14:12:05	1253.718	9.362887e-012	28/11/2022 14:12:06	1253.937	8.404064e-014	28/11/2022 14:12:07	1254.978	3.313969e-013	28/11/2022 14:12:08	1256.019	1.268162e-013	28/11/2022 14:12:08	1256.241	4.643509e-014	28/11/2022 14:12:09	1257.283	3.103937e-014
28/11/2022 14:12:41	1289.331	1.067139e-011	28/11/2022 14:12:41	1289.545	8.877631e-012	28/11/2022 14:12:41	1289.766	6.534807e-014	28/11/2022 14:12:42	1290.806	3.272449e-013	28/11/2022 14:12:44	1291.845	1.568208e-013	28/11/2022 14:12:44	1292.058	3.741746e-014	28/11/2022 14:12:45	1293.098	2.977476e-014
28/11/2022 14:13:17	1325.164	1.077083e-011	28/11/2022 14:13:17	1325.377	8.879945e-012	28/11/2022 14:13:17	1325.590	1.000404e-013	28/11/2022 14:13:18	1326.628	3.048970e-013	28/11/2022 14:13:19	1327.672	1.475271e-013	28/11/2022 14:13:20	1327.886	5.465723e-014	28/11/2022 14:13:21	1328.925	3.389304e-014
28/11/2022 14:13:53	1360.978	1.083362e-011	28/11/2022 14:13:53	1361.191	8.966052e-012	28/11/2022 14:13:53	1361.410	8.590888e-014	28/11/2022 14:13:54	1362.452	3.153980e-013	28/11/2022 14:13:55	1363.492	1.389427e-013	28/11/2022 14:13:55	1363.704	3.922480e-014	28/11/2022 14:13:56	1364.744	3.653318e-014
28/11/2022 14:14:28	1396.793	1.055458e-011	28/11/2022 14:14:29	1397.007	8.830586e-012	28/11/2022 14:14:29	1397.223	8.826163e-014	28/11/2022 14:14:30	1398.266	3.326661e-013	28/11/2022 14:14:31	1399.306	1.573423e-013	28/11/2022 14:14:31	1399.519	4.229502e-014	28/11/2022 14:14:32	1400.562	4.019073e-014
28/11/2022 14:15:04	1432.617	1.056207e-011	28/11/2022 14:15:04	1432.830	8.934465e-012	28/11/2022 14:15:05	1433.049	8.964542e-014	28/11/2022 14:15:06	1434.090	3.244922e-013	28/11/2022 14:15:07	1435.132	1.416992e-013	28/11/2022 14:15:07	1435.352	3.442646e-014	28/11/2022 14:15:08	1436.392	4.184719e-014
28/11/2022 14:15:40	1468.426	1.065936e-011	28/11/2022 14:15:40	1468.639	9.086244e-012	28/11/2022 14:15:41	1468.856	1.053922e-013	28/11/2022 14:15:42	1469.897	3.138740e-013	28/11/2022 14:15:43	1470.938	1.414534e-013	28/11/2022 14:15:43	1471.151	5.440918e-014	28/11/2022 14:15:44	1472.192	3.420580e-014
28/11/2022 14:16:16	1504.228	1.096120e-011	28/11/2022 14:16:16	1504.441	8.833440e-012	28/11/2022 14:16:16	1504.658	4.601105e-014	28/11/2022 14:16:17	1505.701	3.117974e-013	28/11/2022 14:16:18	1506.742	1.532154e-013	28/11/2022 14:16:19	1506.955	4.013951e-014	28/11/2022 14:16:20	1507.998	3.272311e-014
28/11/2022 14:16:52	1540.031	1.058025e-011	28/11/2022 14:16:52	1540.245	8.894570e-012	28/11/2022 14:16:52	1540.464	6.426685e-014	28/11/2022 14:16:53	1541.503	3.138431e-013	28/11/2022 14:16:54	1542.543	1.295789e-013	28/11/2022 14:16:54	1542.756	2.684191e-014	28/11/2022 14:16:55	1543.796	3.400750e-014
28/11/2022 14:17:27	1575.841	1.073484e-011	28/11/2022 14:17:28	1576.055	8.824588e-012	28/11/2022 14:17:28	1576.267	9.331586e-014	28/11/2022 14:17:29	1577.308	3.026788e-013	28/11/2022 14:17:30	1578.349	1.475770e-013	28/11/2022 14:17:30	1578.562	3.580887e-014	28/11/2022 14:17:31	1579.601	3.073805e-014
28/11/2022 14:18:03	1611.639	1.099196e-011	28/11/2022 14:18:04	1611.852	8.700301e-012	28/11/2022 14:18:04	1612.070	4.062543e-014	28/11/2022 14:18:05	1613.113	3.113546e-013	28/11/2022 14:18:06	1614.153	1.281265e-013	28/11/2022 14:18:06	1614.370	3.968615e-014	28/11/2022 14:18:07	1615.412	3.413464e-014
28/11/2022 14:18:39	1647.468	1.069943e-011	28/11/2022 14:18:39	1647.681	8.714456e-012	28/11/2022 14:18:40	1647.899	1.015070e-013	28/11/2022 14:18:41	1648.941	3.098109e-013	28/11/2022 14:18:42	1649.981	1.372229e-013	28/11/2022 14:18:42	1650.195	4.205077e-014	28/11/2022 14:18:43	1651.235	3.710691e-014
28/11/2022 14:19:15	1683.279	1.042598e-011	28/11/2022 14:19:15	1683.492	8.888815e-012	28/11/2022 14:19:15	1683.714	7.208813e-014	28/11/2022 14:19:16	1684.753	3.230449e-013	28/11/2022 14:19:17	1685.793	1.643986e-013	28/11/2022 14:19:18	1686.005	4.049651e-014	28/11/2022 14:19:19	1687.044	3.862249e-014
28/11/2022 14:19:51	1719.100	1.102362e-011	28/11/2022 14:19:51	1719.312	9.067799e-012	28/11/2022 14:19:51	1719.530	8.401219e-014	28/11/2022 14:19:52	1720.572	3.285593e-013	28/11/2022 14:19:53	1721.612	1.487832e-013	28/11/2022 14:19:53	1721.824	5.186500e-014	28/11/2022 14:19:55	1722.865	3.463407e-014
28/11/2022 14:20:27	1754.908	1.094749e-011	28/11/2022 14:20:27	1755.120	9.067023e-012	28/11/2022 14:20:27	1755.338	9.124457e-014	28/11/2022 14:20:28	1756.380	3.267739e-013	28/11/2022 14:20:29	1757.421	1.518138e-013	28/11/2022 14:20:29	1757.634	4.211966e-014	28/11/2022 14:20:30	1758.675	3.617754e-014
28/11/2022 14:21:02	1790.709	1.079564e-011	28/11/2022 14:21:03	1790.923	8.865457e-012	28/11/2022 14:21:03	1791.140	7.327507e-014	28/11/2022 14:21:04	1792.179	3.035849e-013	28/11/2022 14:21:05	1793.219	1.531543e-013	28/11/2022 14:21:05	1793.432	3.940786e-014	28/11/2022 14:21:06	1794.471	3.387557e-014
28/11/2022 14:21:38	1826.499	1.036750e-011	28/11/2022 14:21:38	1826.712	8.851151e-012	28/11/2022 14:21:39	1826.930	7.390007e-014	28/11/2022 14:21:40	1827.971	3.472507e-013	28/11/2022 14:21:41	1829.011	1.385179e-013	28/11/2022 14:21:41	1829.223	4.694564e-014	28/11/2022 14:21:42	1830.265	3.913317e-014
28/11/2022 14:22:14	1862.308	1.074296e-011	28/11/2022 14:22:14	1862.521	8.979862e-012	28/11/2022 14:22:14	1862.739	8.669702e-014	28/11/2022 14:22:15	1863.779	3.094351e-013	28/11/2022 14:22:16	1864.817	1.344144e-013	28/11/2022 14:22:17	1865.030	4.623608e-014	28/11/2022 14:22:18	1866.072	2.819800e-014
28/11/2022 14:22:50	1898.116	1.054813e-011	28/11/2022 14:22:50	1898.328	9.009383e-012	28/11/2022 14:22:50	1898.541	1.215545e-013	28/11/2022 14:22:51	1899.580	3.182006e-013	28/11/2022 14:22:52	1900.621	1.589684e-013	28/11/2022 14:22:52	1900.834	7.347289e-014	28/11/2022 14:22:54	1901.874	3.305522e-014
28/11/2022 14:23:26	1933.896	1.067722e-011	28/11/2022 14:23:26	1934.109	8.793004e-012	28/11/2022 14:23:26	1934.327	6.376838e-014	28/11/2022 14:23:27	1935.367	3.064806e-013	28/11/2022 14:23:28	1936.406	1.405392e-013	28/11/2022 14:23:28	1936.619	2.244777e-014	28/11/2022 14:23:29	1937.660	3.257535e-014
28/11/2022 14:24:01	1969.697	1.045224e-011	28/11/2022 14:24:02	1969.910	9.074927e-012	28/11/2022 14:24:02	1970.123	7.176028e-014	28/11/2022 14:24:03	1971.164	2.975244e-013	28/11/2022 14:24:04	1972.203	1.505539e-013	28/11/2022 14:24:04	1972.416	2.906454e-014	28/11/2022 14:24:05	1973.459	3.451214e-014
28/11/2022 14:24:37	2005.513	1.061065e-011	28/11/2022 14:24:37	2005.726	9.081300e-012	28/11/2022 14:24:38	2005.949	6.991774e-014	28/11/2022 14:24:39	2006.987	3.179020e-013	28/11/2022 14:24:40	2008.028	1.516656e-013	28/11/2022 14:24:40	2008.240	3.216853e-014	28/11/2022 14:24:41	2009.279	2.935836e-014
28/11/2022 14:25:13	2041.319	1.036400e-011	28/11/2022 14:25:13	2041.532	9.076770e-012	28/11/2022 14:25:13	2041.750	5.240940e-014	28/11/2022 14:25:14	2042.790	3.245276e-013	28/11/2022 14:25:15	2043.830	1.435297e-013	28/11/2022 14:25:16	2044.043	3.663188e-014	28/11/2022 14:25:17	2045.083	3.174275e-014
28/11/2022 14:25:49	2077.103	1.081013e-011	28/11/2022 14:25:49	2077.315	8.950853e-012	28/11/2022 14:25:49	2077.533	5.704910e-014	28/11/2022 14:25:50	2078.575	3.264266e-013	28/11/2022 14:25:51	2079.616	1.527628e-013	28/11/2022 14:25:51	2079.837	2.628277e-014	28/11/2022 14:25:53	2080.878	3.081755e-014
28/11/2022 14:26:25	2112.929	1.054958e-011	28/11/2022 14:26:25	2113.141	8.675777e-012	28/11/2022 14:26:25	2113.355	7.379949e-014	28/11/2022 14:26:26	2114.395	3.250212e-013	28/11/2022 14:26:27	2115.434	1.452972e-013	28/11/2022 14:26:27	2115.647	2.564664e-014	28/11/2022 14:26:28	2116.689	3.671007e-014
28/11/2022 14:27:00	2148.732	1.091263e-011	28/11/2022 14:27:01	2148.945	9.065113e-012	28/11/2022 14:27:01	2149.162	7.623562e-014	28/11/2022 14:27:02	2150.202	3.444280e-013	28/11/2022 14:27:03	2151.244	1.221373e-013	28/11/2022 14:27:03	2151.458	3.952283e-014	28/11/2022 14:27:04	2152.497	3.223700e-014
28/11/2022 14:27:36	2184.530	1.090519e-011	28/11/2022 14:27:36	2184.743	9.096988e-012	28/11/2022 14:27:37	2184.955	7.329507e-014	28/11/2022 14:27:38	2185.995	3.328749e-013	28/11/2022 14:27:39	2187.036	1.325564e-013	28/11/2022 14:27:39	2187.248	2.763593e-014	28/11/2022 14:27:40	2188.288	2.972837e-014
28/11/2022 14:28:12	2220.333	1.080654e-011	28/11/2022 14:28:12	2220.546	9.052665e-012	28/11/2022 14:28:12	2220.759	1.166710e-013	28/11/2022 14:28:13	2221.801	3.132146e-013	28/11/2022 14:28:14	2222.840	1.449760e-013	28/11/2022 14:28:15	2223.053	1.775833e-014	28/11/2022 14:28:16	2224.094	3.477600e-014
28/11/2022 14:28:48	2256.141	1.049001e-011	28/11/2022 14:28:48	2256.354	9.107405e-012	28/11/2022 14:28:48	2256.572	5.208251e-014	28/11/2022 14:28:49	2257.611	3.239627e-013	28/11/2022 14:28:50	2258.651	1.472058e-013	28/11/2022 14:28:51	2258.872	2.216719e-014	28/11/2022 14:28:52	2259.913	3.186471e-014
28/11/2022 14:29:24	2291.956	1.097999e-011	28/11/2022 14:29:24	2292.169	9.148891e-012	28/11/2022 14:29:24	2292.386	4.867328e-014	28/11/2022 14:29:25	2293.429	3.411575e-013	28/11/2022 14:29:26	2294.472	1.417160e-013	28/11/2022 14:29:26	2294.685	4.563473e-014	28/11/2022 14:29:27	2295.725	3.118356e-014
28/11/2022 14:29:59	2327.766	1.061781e-011	28/11/2022 14:30:00	2327.979	8.779111e-012	28/11/2022 14:30:00	2328.198	8.958009e-014	28/11/2022 14:30:01	2329.240	3.281183e-013	28/11/2022 14:30:02	2330.279	1.441323e-013	28/11/2022 14:30:02	2330.492	4.011048e-014	28/11/2022 14:30:03	2331.534	2.751545e-014
28/11/2022 14:30:35	2363.592	1.061855e-011	28/11/2022 14:30:35	2363.804	8.916892e-012	28/11/2022 14:30:36	2364.022	8.683384e-014	28/11/2022 14:30:37	2365.061	3.098917e-013	28/11/2022 14:30:38	2366.102	1.502874e-013	28/11/2022 14:30:38	2366.316	2.146445e-014	28/11/2022 14:30:39	2367.359	3.813740e-014
28/11/2022 14:31:11	2399.401	1.052328e-011	28/11/2022 14:31:11	2399.613	8.824229e-012	28/11/2022 14:31:11	2399.832	7.308697e-014	28/11/2022 14:31:13	2400.872	3.442137e-013	28/11/2022 14:31:14	2401.914	1.444013e-013	28/11/2022 14:31:14	2402.126	4.118744e-014	28/11/2022 14:31:15	2403.166	2.888202e-014
28/11/2022 14:31:47	2435.183	1.072743e-011	28/11/2022 14:31:47	2435.396	8.993290e-012	28/11/2022 14:31:47	2435.614	6.076073e-014	28/11/2022 14:31:48	2436.657	3.547302e-013	28/11/2022 14:31:49	2437.697	1.589279e-013	28/11/2022 14:31:50	2437.918	3.968372e-014	28/11/2022 14:31:51	2438.961	2.510959e-014
28/11/2022 14:32:23	2470.995	1.057740e-011	28/11/2022 14:32:23	2471.207	8.995540e-012	28/11/2022 14:32:23	2471.424	7.672128e-014	28/11/2022 14:32:24	2472.465	3.471523e-013	28/11/2022 14:32:25	2473.506	1.435379e-013	28/11/2022 14:32:25	2473.719	3.704526e-014	28/11/2022 14:32:26	2474.761	2.771958e-014
28/11/2022 14:32:58	2506.789	1.103667e-011	28/11/2022 14:32:59	2507.002	8.778107e-012	28/11/2022 14:32:59	2507.219	8.422812e-014	28/11/2022 14:33:00	2508.259	3.320854e-013	28/11/2022 14:33:01	2509.301	1.412155e-013	28/11/2022 14:33:01	2509.514	3.576953e-014	28/11/2022 14:33:02	2510.554	3.320341e-014
28/11/2022 14:33:34	2542.587	1.107703e-011	28/11/2022 14:33:34	2542.799	8.994781e-012	28/11/2022 14:33:35	2543.012	8.117201e-014	28/11/2022 14:33:36	2544.054	3.343594e-013	28/11/2022 14:33:37	2545.094	1.400277e-013	28/11/2022 14:33:37	2545.306	4.024273e-014	28/11/2022 14:33:38	2546.349	3.083524e-014
28/11/2022 14:34:10	2578.387	1.053442e-011	28/11/2022 14:34:10	2578.599	8.704398e-012	28/11/2022 14:34:10	2578.817	5.645281e-014	28/11/2022 14:34:12	2579.858	3.296977e-013	28/11/2022 14:34:13	2580.896	1.377374e-013	28/11/2022 14:34:13	2581.109	3.533454e-014	28/11/2022 14:34:14	2582.153	3.185200e-014
28/11/2022 14:34:46	2614.206	1.046990e-011	28/11/2022 14:34:46	2614.419	8.834989e-012	28/11/2022 14:34:46	2614.632	7.852625e-014	28/11/2022 14:34:47	2615.671	3.077387e-013	28/11/2022 14:34:48	2616.711	1.252481e-013	28/11/2022 14:34:49	2616.924	2.838000e-014	28/11/2022 14:34:50	2617.964	2.815950e-014
28/11/2022 14:35:22	2650.023	1.074785e-011	28/11/2022 14:35:22	2650.236	8.888379e-012	28/11/2022 14:35:22	2650.454	5.843260e-014	28/11/2022 14:35:23	2651.494	3.314162e-013	28/11/2022 14:35:24	2652.535	1.369643e-013	28/11/2022 14:35:24	2652.747	3.822301e-014	28/11/2022 14:35:25	2653.786	3.428469e-014
28/11/2022 14:35:57	2685.818	1.090135e-011	28/11/2022 14:35:58	2686.031	8.984810e-012	28/11/2022 14:35:58	2686.243	8.505614e-014	28/11/2022 14:35:59	2687.285	3.031968e-013	28/11/2022 14:36:00	2688.325	1.413977e-013	28/11/2022 14:36:00	2688.538	4.414645e-014	28/11/2022 14:36:01	2689.579	2.544338e-014
28/11/2022 14:36:33	2721.636	1.034091e-011	28/11/2022 14:36:34	2721.849	8.745657e-012	28/11/2022 14:36:34	2722.064	8.059373e-014	28/11/2022 14:36:35	2723.103	3.291063e-013	28/11/2022 14:36:36	2724.146	1.255471e-013	28/11/2022 14:36:36	2724.359	5.204407e-014	28/11/2022 14:36:37	2725.401	3.338819e-014
28/11/2022 14:37:09	2757.458	1.074708e-011	28/11/2022 14:37:09	2757.670	8.774509e-012	28/11/2022 14:37:10	2757.887	7.153726e-014	28/11/2022 14:37:11	2758.927	3.282381e-013	28/11/2022 14:37:12	2759.968	1.412051e-013	28/11/2022 14:37:12	2760.181	2.482003e-014	28/11/2022 14:37:13	2761.221	3.368849e-014
28/11/2022 14:37:45	2793.261	1.082360e-011	28/11/2022 14:37:45	2793.474	8.946302e-012	28/11/2022 14:37:45	2793.692	7.217855e-014	28/11/2022 14:37:46	2794.732	3.050430e-013	28/11/2022 14:37:47	2795.772	1.365294e-013	28/11/2022 14:37:48	2795.989	3.331187e-014	28/11/2022 14:37:49	2797.032	2.993147e-014
28/11/2022 14:38:21	2829.084	1.035828e-011	28/11/2022 14:38:21	2829.296	8.602580e-012	28/11/2022 14:38:21	2829.514	1.016095e-013	28/11/2022 14:38:22	2830.555	3.057208e-013	28/11/2022 14:38:23	2831.596	1.247710e-013	28/11/2022 14:38:23	2831.809	5.800572e-014	28/11/2022 14:38:25	2832.851	3.057824e-014
28/11/2022 14:38:57	2864.892	1.075974e-011	28/11/2022 14:38:57	2865.104	8.890612e-012	28/11/2022 14:38:57	2865.323	6.995537e-014	28/11/2022 14:38:58	2866.363	3.146011e-013	28/11/2022 14:38:59	2867.406	1.298545e-013	28/11/2022 14:38:59	2867.619	2.516538e-014	28/11/2022 14:39:00	2868.658	2.699060e-014
28/11/2022 14:39:32	2900.682	1.074674e-011	28/11/2022 14:39:33	2900.894	8.916369e-012	28/11/2022 14:39:33	2901.107	7.524473e-014	28/11/2022 14:39:34	2902.148	3.258861e-013	28/11/2022 14:39:35	2903.187	1.418991e-013	28/11/2022 14:39:35	2903.399	3.550586e-014	28/11/2022 14:39:36	2904.440	2.868203e-014
28/11/2022 14:40:08	2936.484	1.050921e-011	28/11/2022 14:40:08	2936.696	8.747552e-012	28/11/2022 14:40:09	2936.914	6.299626e-014	28/11/2022 14:40:10	2937.955	3.159781e-013	28/11/2022 14:40:11	2938.994	1.288414e-013	28/11/2022 14:40:11	2939.207	3.381020e-014	28/11/2022 14:40:12	2940.249	2.691256e-014
28/11/2022 14:40:44	2972.302	1.059889e-011	28/11/2022 14:40:44	2972.514	8.776431e-012	28/11/2022 14:40:44	2972.727	6.612290e-014	28/11/2022 14:40:45	2973.767	3.041129e-013	28/11/2022 14:40:46	2974.809	1.362527e-013	28/11/2022 14:40:47	2975.022	2.109677e-014	28/11/2022 14:40:48	2976.063	3.146327e-014
28/11/2022 14:41:20	3008.096	1.045630e-011	28/11/2022 14:41:20	3008.309	8.920292e-012	28/11/2022 14:41:20	3008.526	9.644270e-014	28/11/2022 14:41:21	3009.567	3.182073e-013	28/11/2022 14:41:22	3010.607	1.572644e-013	28/11/2022 14:41:22	3010.821	3.510819e-014	28/11/2022 14:41:24	3011.863	2.987819e-014
28/11/2022 14:41:56	3043.918	1.072291e-011	28/11/2022 14:41:56	3044.131	9.142006e-012	28/11/2022 14:41:56	3044.349	6.008365e-014	28/11/2022 14:41:57	3045.390	2.970505e-013	28/11/2022 14:41:58	3046.428	1.340426e-013	28/11/2022 14:41:58	3046.641	5.766340e-014	28/11/2022 14:41:59	3047.681	2.979329e-014
28/11/2022 14:42:31	3079.743	1.083533e-011	28/11/2022 14:42:32	3079.956	8.794728e-012	28/11/2022 14:42:32	3080.174	7.251934e-014	28/11/2022 14:42:33	3081.214	3.085333e-013	28/11/2022 14:42:34	3082.257	1.216931e-013	28/11/2022 14:42:34	3082.475	3.238758e-014	28/11/2022 14:42:35	3083.514	2.806647e-014
28/11/2022 14:43:07	3115.574	1.097004e-011	28/11/2022 14:43:07	3115.787	9.118532e-012	28/11/2022 14:43:08	3116.005	8.172117e-014	28/11/2022 14:43:09	3117.046	3.072340e-013	28/11/2022 14:43:10	3118.087	1.382760e-013	28/11/2022 14:43:10	3118.299	4.456277e-014	28/11/2022 14:43:11	3119.339	3.457393e-014
28/11/2022 14:43:43	3151.384	1.074515e-011	28/11/2022 14:43:43	3151.598	9.146085e-012	28/11/2022 14:43:43	3151.815	9.757960e-014	28/11/2022 14:43:45	3152.856	3.326376e-013	28/11/2022 14:43:46	3153.895	1.450107e-013	28/11/2022 14:43:46	3154.109	3.205449e-014	28/11/2022 14:43:47	3155.150	2.631055e-014
28/11/2022 14:44:19	3187.175	1.103311e-011	28/11/2022 14:44:19	3187.387	9.084530e-012	28/11/2022 14:44:19	3187.600	1.047183e-013	28/11/2022 14:44:20	3188.640	2.851941e-013	28/11/2022 14:44:21	3189.682	1.325990e-013	28/11/2022 14:44:22	3189.895	2.467706e-014	28/11/2022 14:44:23	3190.935	3.291519e-014
28/11/2022 14:44:55	3222.976	1.036915e-011	28/11/2022 14:44:55	3223.189	8.613123e-012	28/11/2022 14:44:55	3223.405	1.212223e-013	28/11/2022 14:44:56	3224.446	3.405100e-013	28/11/2022 14:44:57	3225.487	1.366766e-013	28/11/2022 14:44:57	3225.700	4.182339e-014	28/11/2022 14:44:58	3226.741	2.897087e-014
28/11/2022 14:45:30	3258.778	1.051746e-011	28/11/2022 14:45:31	3258.991	8.697292e-012	28/11/2022 14:45:31	3259.210	7.077710e-014	28/11/2022 14:45:32	3260.251	3.289508e-013	28/11/2022 14:45:33	3261.292	1.538670e-013	28/11/2022 14:45:33	3261.505	7.743539e-014	28/11/2022 14:45:34	3262.548	3.599379e-014
28/11/2022 14:46:06	3294.579	1.053900e-011	28/11/2022 14:46:06	3294.792	8.928883e-012	28/11/2022 14:46:07	3295.013	6.746900e-014	28/11/2022 14:46:08	3296.054	3.148783e-013	28/11/2022 14:46:09	3297.095	1.338590e-013	28/11/2022 14:46:09	3297.308	3.977521e-014	28/11/2022 14:46:10	3298.349	2.485071e-014
28/11/2022 14:46:42	3330.366	1.054000e-011	28/11/2022 14:46:42	3330.579	8.725342e-012	28/11/2022 14:46:42	3330.798	8.236737e-014	28/11/2022 14:46:43	3331.837	2.917754e-013	28/11/2022 14:46:45	3332.878	1.273781e-013	28/11/2022 14:46:45	3333.091	2.774461e-014	28/11/2022 14:46:46	3334.131	2.879981e-014
28/11/2022 14:47:18	3366.204	1.072295e-011	28/11/2022 14:47:18	3366.416	9.076357e-012	28/11/2022 14:47:18	3366.634	8.554618e-014	28/11/2022 14:47:19	3367.675	2.914527e-013	28/11/2022 14:47:20	3368.715	1.593775e-013	28/11/2022 14:47:21	3368.928	2.678098e-014	28/11/2022 14:47:22	3369.971	3.370075e-014
28/11/2022 14:47:54	3402.007	1.057614e-011	28/11/2022 14:47:54	3402.220	8.969012e-012	28/11/2022 14:47:54	3402.438	8.944147e-014	28/11/2022 14:47:55	3403.480	3.047485e-013	28/11/2022 14:47:56	3404.521	1.489413e-013	28/11/2022 14:47:56	3404.734	3.714367e-014	28/11/2022 14:47:57	3405.776	3.299923e-014
28/11/2022 14:48:29	3437.830	1.057064e-011	28/11/2022 14:48:30	3438.043	8.671091e-012	28/11/2022 14:48:30	3438.260	8.493391e-014	28/11/2022 14:48:31	3439.300	3.176965e-013	28/11/2022 14:48:32	3440.342	1.231461e-013	28/11/2022 14:48:32	3440.556	5.250165e-014	28/11/2022 14:48:33	3441.595	3.073762e-014
28/11/2022 14:49:05	3473.649	1.074276e-011	28/11/2022 14:49:06	3473.862	8.921831e-012	28/11/2022 14:49:06	3474.074	1.019010e-013	28/11/2022 14:49:07	3475.114	3.219170e-013	28/11/2022 14:49:08	3476.153	1.478854e-013	28/11/2022 14:49:08	3476.366	4.770397e-014	28/11/2022 14:49:09	3477.407	3.317509e-014
28/11/2022 14:49:41	3509.457	1.057727e-011	28/11/2022 14:49:41	3509.670	8.866421e-012	28/11/2022 14:49:42	3509.891	8.172320e-014	28/11/2022 14:49:43	3510.931	3.264018e-013	28/11/2022 14:49:44	3511.971	1.452314e-013	28/11/2022 14:49:44	3512.184	3.865487e-014	28/11/2022 14:49:45	3513.223	3.146554e-014
28/11/2022 14:50:17	3545.253	1.024485e-011	28/11/2022 14:50:17	3545.466	8.737892e-012	28/11/2022 14:50:17	3545.683	8.982676e-014	28/11/2022 14:50:18	3546.724	3.119248e-013	28/11/2022 14:50:19	3547.764	1.282722e-013	28/11/2022 14:50:20	3547.977	3.696863e-014	28/11/2022 14:50:21	3549.017	2.770419e-014
28/11/2022 14:50:53	3581.052	1.066670e-011	28/11/2022 14:50:53	3581.265	9.139268e-012	28/11/2022 14:50:53	3581.483	6.614985e-014	28/11/2022 14:50:54	3582.525	3.264610e-013	28/11/2022 14:50:55	3583.569	1.188740e-013	28/11/2022 14:50:55	3583.781	4.761630e-014	28/11/2022 14:50:56	3584.822	2.980555e-014
28/11/2022 14:51:29	3616.870	1.075462e-011	28/11/2022 14:51:29	3617.083	8.645074e-012	28/11/2022 14:51:29	3617.302	7.506701e-014	28/11/2022 14:51:30	3618.344	3.172887e-013	28/11/2022 14:51:31	3619.382	1.224301e-013	28/11/2022 14:51:31	3619.595	3.781269e-014	28/11/2022 14:51:32	3620.636	2.774081e-014
28/11/2022 14:52:04	3652.657	1.062736e-011	28/11/2022 14:52:05	3652.870	8.862954e-012	28/11/2022 14:52:05	3653.089	6.422367e-014	28/11/2022 14:52:06	3654.128	3.055370e-013	28/11/2022 14:52:07	3655.169	1.348889e-013	28/11/2022 14:52:07	3655.381	4.402587e-014	28/11/2022 14:52:08	3656.421	3.564088e-014
28/11/2022 14:52:40	3688.460	1.068964e-011	28/11/2022 14:52:40	3688.673	8.930126e-012	28/11/2022 14:52:41	3688.886	8.209529e-014	28/11/2022 14:52:42	3689.927	2.970652e-013	28/11/2022 14:52:43	3690.967	1.372909e-013	28/11/2022 14:52:43	3691.180	4.018202e-014	28/11/2022 14:52:44	3692.221	2.769398e-014
28/11/2022 14:53:16	3724.286	1.056038e-011	28/11/2022 14:53:16	3724.499	8.801552e-012	28/11/2022 14:53:16	3724.717	5.988428e-014	28/11/2022 14:53:17	3725.759	3.003160e-013	28/11/2022 14:53:18	3726.798	1.145961e-013	28/11/2022 14:53:19	3727.011	4.248055e-014	28/11/2022 14:53:20	3728.052	2.921894e-014
28/11/2022 14:53:52	3760.117	1.083059e-011	28/11/2022 14:53:52	3760.330	8.421081e-012	28/11/2022 14:53:52	3760.551	4.122261e-014	28/11/2022 14:53:53	3761.592	3.004433e-013	28/11/2022 14:53:54	3762.633	1.491619e-013	28/11/2022 14:53:55	3762.846	2.454961e-014	28/11/2022 14:53:56	3763.886	3.067025e-014
28/11/2022 14:54:28	3795.929	1.088426e-011	28/11/2022 14:54:28	3796.143	8.936318e-012	28/11/2022 14:54:28	3796.355	4.916700e-014	28/11/2022 14:54:29	3797.396	3.356463e-013	28/11/2022 14:54:30	3798.437	1.352850e-013	28/11/2022 14:54:30	3798.649	2.521305e-014	28/11/2022 14:54:31	3799.690	2.981929e-014
28/11/2022 14:55:03	3831.731	1.029466e-011	28/11/2022 14:55:04	3831.943	9.067772e-012	28/11/2022 14:55:04	3832.163	8.336436e-014	28/11/2022 14:55:05	3833.202	3.126549e-013	28/11/2022 14:55:06	3834.243	1.517792e-013	28/11/2022 14:55:06	3834.464	5.491093e-014	28/11/2022 14:55:07	3835.506	2.534952e-014
28/11/2022 14:55:39	3867.557	1.083799e-011	28/11/2022 14:55:39	3867.770	8.685829e-012	28/11/2022 14:55:40	3867.988	8.189418e-014	28/11/2022 14:55:41	3869.027	3.043568e-013	28/11/2022 14:55:42	3870.069	1.250208e-013	28/11/2022 14:55:42	3870.282	3.670785e-014	28/11/2022 14:55:43	3871.324	2.940413e-014
28/11/2022 14:56:15	3903.366	1.066457e-011	28/11/2022 14:56:15	3903.579	8.871279e-012	28/11/2022 14:56:15	3903.798	4.994761e-014	28/11/2022 14:56:16	3904.838	3.174124e-013	28/11/2022 14:56:18	3905.879	1.226949e-013	28/11/2022 14:56:18	3906.092	3.075012e-014	28/11/2022 14:56:19	3907.131	3.048292e-014
28/11/2022 14:56:51	3939.170	1.052764e-011	28/11/2022 14:56:51	3939.383	9.106494e-012	28/11/2022 14:56:51	3939.602	7.243892e-014	28/11/2022 14:56:52	3940.643	3.121895e-013	28/11/2022 14:56:53	3941.683	1.381103e-013	28/11/2022 14:56:54	3941.895	2.133057e-014	28/11/2022 14:56:55	3942.937	2.999451e-014
28/11/2022 14:57:27	3974.987	1.056344e-011	28/11/2022 14:57:27	3975.201	9.035475e-012	28/11/2022 14:57:27	3975.419	6.114625e-014	28/11/2022 14:57:28	3976.459	3.096382e-013	28/11/2022 14:57:29	3977.500	1.188018e-013	28/11/2022 14:57:29	3977.713	4.777147e-014	28/11/2022 14:57:30	3978.753	2.081777e-014
28/11/2022 14:58:02	4010.814	1.077963e-011	28/11/2022 14:58:03	4011.027	8.964851e-012	28/11/2022 14:58:03	4011.240	6.538647e-014	28/11/2022 14:58:04	4012.279	2.991433e-013	28/11/2022 14:58:05	4013.320	1.342796e-013	28/11/2022 14:58:05	4013.534	1.835935e-014	28/11/2022 14:58:06	4014.574	2.764115e-014
28/11/2022 14:58:38	4046.629	1.078445e-011	28/11/2022 14:58:38	4046.841	8.782542e-012	28/11/2022 14:58:39	4047.060	6.597801e-014	28/11/2022 14:58:40	4048.101	3.051067e-013	28/11/2022 14:58:41	4049.142	1.328473e-013	28/11/2022 14:58:41	4049.354	7.069699e-014	28/11/2022 14:58:42	4050.394	3.362938e-014
28/11/2022 14:59:14	4082.443	1.080303e-011	28/11/2022 14:59:14	4082.656	8.950095e-012	28/11/2022 14:59:15	4082.874	5.523055e-014	28/11/2022 14:59:16	4083.914	2.995191e-013	28/11/2022 14:59:17	4084.954	1.141882e-013	28/11/2022 14:59:17	4085.167	3.141864e-014	28/11/2022 14:59:18	4086.209	2.864375e-014
28/11/2022 14:59:50	4118.245	1.045402e-011	28/11/2022 14:59:50	4118.458	8.600330e-012	28/11/2022 14:59:50	4118.675	8.695627e-014	28/11/2022 14:59:51	4119.713	2.876655e-013	28/11/2022 14:59:52	4120.756	1.387487e-013	28/11/2022 14:59:53	4120.969	4.401633e-014	28/11/2022 14:59:54	4122.010	2.685742e-014
28/11/2022 15:00:26	4154.058	1.041096e-011	28/11/2022 15:00:26	4154.270	8.838039e-012	28/11/2022 15:00:26	4154.489	7.126356e-014	28/11/2022 15:00:27	4155.532	3.273519e-013	28/11/2022 15:00:28	4156.573	1.387527e-013	28/11/2022 15:00:28	4156.785	1.883841e-014	28/11/2022 15:00:29	4157.826	2.485905e-014
28/11/2022 15:01:02	4189.864	1.067842e-011	28/11/2022 15:01:02	4190.077	8.987066e-012	28/11/2022 15:01:02	4190.296	8.351377e-014	28/11/2022 15:01:03	4191.336	3.098325e-013	28/11/2022 15:01:04	4192.377	1.276436e-013	28/11/2022 15:01:04	4192.590	2.534301e-014	28/11/2022 15:01:05	4193.631	2.182332e-014
28/11/2022 15:01:37	4225.698	1.075001e-011	28/11/2022 15:01:38	4225.911	9.116697e-012	28/11/2022 15:01:38	4226.132	6.086128e-014	28/11/2022 15:01:39	4227.171	3.036685e-013	28/11/2022 15:01:40	4228.213	1.255453e-013	28/11/2022 15:01:40	4228.426	2.764416e-015	28/11/2022 15:01:41	4229.467	2.623418e-014
28/11/2022 15:02:13	4261.501	1.074644e-011	28/11/2022 15:02:13	4261.714	8.721299e-012	28/11/2022 15:02:14	4261.931	7.019963e-014	28/11/2022 15:02:15	4262.972	3.259520e-013	28/11/2022 15:02:16	4264.012	1.322745e-013	28/11/2022 15:02:16	4264.225	2.851600e-014	28/11/2022 15:02:17	4265.266	2.902830e-014
28/11/2022 15:02:49	4297.307	1.079422e-011	28/11/2022 15:02:49	4297.520	8.749518e-012	28/11/2022 15:02:49	4297.738	5.414248e-014	28/11/2022 15:02:50	4298.780	3.120944e-013	28/11/2022 15:02:51	4299.819	1.328370e-013	28/11/2022 15:02:52	4300.032	2.280158e-014	28/11/2022 15:02:53	4301.072	2.454713e-014
28/11/2022 15:03:25	4333.117	1.088221e-011	28/11/2022 15:03:25	4333.331	9.165295e-012	28/11/2022 15:03:25	4333.549	5.097450e-014	28/11/2022 15:03:26	4334.589	3.091122e-013	28/11/2022 15:03:27	4335.631	1.200754e-013	28/11/2022 15:03:27	4335.844	1.193293e-014	28/11/2022 15:03:29	4336.884	2.601982e-014
28/11/2022 15:04:01	4368.936	1.059780e-011	28/11/2022 15:04:01	4369.148	8.807718e-012	28/11/2022 15:04:01	4369.367	5.167174e-014	28/11/2022 15:04:02	4370.407	3.317043e-013	28/11/2022 15:04:03	4371.447	1.360488e-013	28/11/2022 15:04:03	4371.659	3.190737e-014	28/11/2022 15:04:04	4372.698	2.078968e-014
28/11/2022 15:04:36	4404.752	1.053687e-011	28/11/2022 15:04:37	4404.966	8.814454e-012	28/11/2022 15:04:37	4405.183	1.062247e-013	28/11/2022 15:04:38	4406.224	2.924257e-013	28/11/2022 15:04:39	4407.264	1.211967e-013	28/11/2022 15:04:39	4407.477	2.181880e-014	28/11/2022 15:04:40	4408.518	1.738581e-014
28/11/2022 15:05:12	4440.558	1.050625e-011	28/11/2022 15:05:12	4440.770	9.021853e-012	28/11/2022 15:05:13	4440.987	6.182022e-014	28/11/2022 15:05:14	4442.027	3.040308e-013	28/11/2022 15:05:15	4443.067	1.219327e-013	28/11/2022 15:05:15	4443.280	2.525806e-014	28/11/2022 15:05:16	4444.321	1.964721e-014
28/11/2022 15:05:48	4476.367	1.049871e-011	28/11/2022 15:05:48	4476.579	9.027844e-012	28/11/2022 15:05:48	4476.797	7.928454e-014	28/11/2022 15:05:49	4477.837	2.930193e-013	28/11/2022 15:05:51	4478.877	1.538008e-013	28/11/2022 15:05:51	4479.095	2.273982e-014	28/11/2022 15:05:52	4480.136	2.416650e-014
28/11/2022 15:06:24	4512.161	1.092263e-011	28/11/2022 15:06:24	4512.374	9.009474e-012	28/11/2022 15:06:24	4512.593	7.787042e-014	28/11/2022 15:06:25	4513.634	3.021844e-013	28/11/2022 15:06:26	4514.673	1.256151e-013	28/11/2022 15:06:27	4514.886	3.622982e-014	28/11/2022 15:06:28	4515.925	2.415652e-014
28/11/2022 15:07:00	4547.957	1.063509e-011	28/11/2022 15:07:00	4548.170	8.569439e-012	28/11/2022 15:07:00	4548.389	4.141375e-014	28/11/2022 15:07:01	4549.430	3.243095e-013	28/11/2022 15:07:02	4550.471	1.365660e-013	28/11/2022 15:07:02	4550.690	2.084563e-014	28/11/2022 15:07:03	4551.731	2.474878e-014
28/11/2022 15:07:35	4583.755	1.050069e-011	28/11/2022 15:07:36	4583.968	8.977996e-012	28/11/2022 15:07:36	4584.186	6.177975e-014	28/11/2022 15:07:37	4585.226	3.062465e-013	28/11/2022 15:07:38	4586.267	9.969193e-014	28/11/2022 15:07:38	4586.480	2.132080e-014	28/11/2022 15:07:39	4587.521	2.412572e-014
28/11/2022 15:08:11	4619.546	1.056572e-011	28/11/2022 15:08:11	4619.758	8.613898e-012	28/11/2022 15:08:12	4619.976	3.688753e-014	28/11/2022 15:08:13	4621.017	3.219355e-013	28/11/2022 15:08:14	4622.057	1.308199e-013	28/11/2022 15:08:14	4622.270	2.915955e-014	28/11/2022 15:08:15	4623.310	2.179898e-014
28/11/2022 15:08:47	4655.355	1.028724e-011	28/11/2022 15:08:47	4655.569	8.869555e-012	28/11/2022 15:08:47	4655.793	4.826637e-014	28/11/2022 15:08:48	4656.832	3.140398e-013	28/11/2022 15:08:50	4657.874	1.291217e-013	28/11/2022 15:08:50	4658.087	4.058822e-014	28/11/2022 15:08:51	4659.128	1.554310e-014
28/11/2022 15:09:23	4691.149	1.078969e-011	28/11/2022 15:09:23	4691.361	9.075935e-012	28/11/2022 15:09:23	4691.579	5.207662e-014	28/11/2022 15:09:24	4692.618	2.937277e-013	28/11/2022 15:09:25	4693.659	1.104095e-013	28/11/2022 15:09:26	4693.872	2.626948e-014	28/11/2022 15:09:27	4694.911	2.020742e-014
28/11/2022 15:09:59	4726.950	1.060217e-011	28/11/2022 15:09:59	4727.163	8.713825e-012	28/11/2022 15:09:59	4727.382	5.829335e-014	28/11/2022 15:10:00	4728.423	3.112318e-013	28/11/2022 15:10:01	4729.462	1.327752e-013	28/11/2022 15:10:01	4729.675	1.655507e-014	28/11/2022 15:10:02	4730.715	2.234023e-014
28/11/2022 15:10:34	4762.743	1.085661e-011	28/11/2022 15:10:35	4762.956	8.810311e-012	28/11/2022 15:10:35	4763.173	5.848097e-014	28/11/2022 15:10:36	4764.214	3.126276e-013	28/11/2022 15:10:37	4765.256	1.301540e-013	28/11/2022 15:10:37	4765.469	4.369624e-014	28/11/2022 15:10:38	4766.510	1.917066e-014
28/11/2022 15:11:10	4798.550	1.085225e-011	28/11/2022 15:11:10	4798.763	8.567343e-012	28/11/2022 15:11:11	4798.981	4.256784e-014	28/11/2022 15:11:12	4800.021	3.230334e-013	28/11/2022 15:11:13	4801.062	1.166737e-013	28/11/2022 15:11:13	4801.275	2.664604e-014	28/11/2022 15:11:14	4802.315	1.514230e-014
28/11/2022 15:11:46	4834.390	1.101660e-011	28/11/2022 15:11:46	4834.603	8.696062e-012	28/11/2022 15:11:46	4834.821	6.065199e-014	28/11/2022 15:11:48	4835.861	3.020399e-013	28/11/2022 15:11:49	4836.900	1.185138e-013	28/11/2022 15:11:49	4837.113	2.985312e-014	28/11/2022 15:11:50	4838.154	2.148806e-014
28/11/2022 15:12:22	4870.213	1.071500e-011	28/11/2022 15:12:22	4870.426	8.570042e-012	28/11/2022 15:12:22	4870.645	4.332123e-014	28/11/2022 15:12:23	4871.685	3.126679e-013	28/11/2022 15:12:24	4872.727	1.192203e-013	28/11/2022 15:12:25	4872.941	1.987030e-014	28/11/2022 15:12:26	4873.981	2.153156e-014
28/11/2022 15:12:58	4906.020	1.041607e-011	28/11/2022 15:12:58	4906.233	9.045374e-012	28/11/2022 15:12:58	4906.450	5.500480e-014	28/11/2022 15:12:59	4907.489	3.147769e-013	28/11/2022 15:13:00	4908.531	1.179762e-013	28/11/2022 15:13:00	4908.744	3.059191e-014	28/11/2022 15:13:01	4909.784	1.654176e-014
28/11/2022 15:13:33	4941.811	1.102472e-011	28/11/2022 15:13:34	4942.024	8.877789e-012	28/11/2022 15:13:34	4942.244	9.164973e-014	28/11/2022 15:13:35	4943.285	3.033008e-013	28/11/2022 15:13:36	4944.324	1.160316e-013	28/11/2022 15:13:36	4944.537	3.545096e-014	28/11/2022 15:13:37	4945.579	1.675902e-014
28/11/2022 15:14:09	4977.603	1.082543e-011	28/11/2022 15:14:09	4977.816	8.735854e-012	28/11/2022 15:14:10	4978.042	4.215021e-014	28/11/2022 15:14:11	4979.084	2.801342e-013	28/11/2022 15:14:12	4980.124	1.076994e-013	28/11/2022 15:14:12	4980.337	3.327916e-014	28/11/2022 15:14:13	4981.378	1.844254e-014
28/11/2022 15:14:45	5013.435	1.035049e-011	28/11/2022 15:14:45	5013.648	8.856014e-012	28/11/2022 15:14:46	5013.868	4.649598e-014	28/11/2022 15:14:47	5014.909	3.061873e-013	28/11/2022 15:14:48	5015.950	1.160837e-013	28/11/2022 15:14:48	5016.162	1.989745e-014	28/11/2022 15:14:49	5017.203	1.610143e-014
28/11/2022 15:15:21	5049.240	1.058406e-011	28/11/2022 15:15:21	5049.453	8.922936e-012	28/11/2022 15:15:21	5049.671	4.322179e-014	28/11/2022 15:15:22	5050.713	2.855138e-013	28/11/2022 15:15:23	5051.752	1.145192e-013	28/11/2022 15:15:24	5051.967	3.509626e-014	28/11/2022 15:15:25	5053.007	1.908953e-014
28/11/2022 15:15:57	5085.040	1.033395e-011	28/11/2022 15:15:57	5085.253	8.560112e-012	28/11/2022 15:15:57	5085.470	4.012382e-014	28/11/2022 15:15:58	5086.511	3.001013e-013	28/11/2022 15:15:59	5087.551	1.290326e-013	28/11/2022 15:15:59	5087.765	3.340414e-014	28/11/2022 15:16:00	5088.806	1.303927e-014
28/11/2022 15:16:32	5120.840	1.051578e-011	28/11/2022 15:16:33	5121.052	8.769020e-012	28/11/2022 15:16:33	5121.271	3.020537e-014	28/11/2022 15:16:34	5122.311	2.694150e-013	28/11/2022 15:16:35	5123.353	1.026399e-013	28/11/2022 15:16:35	5123.566	1.068921e-014	28/11/2022 15:16:36	5124.607	1.743887e-014
28/11/2022 15:17:08	5156.638	1.065123e-011	28/11/2022 15:17:09	5156.850	8.977828e-012	28/11/2022 15:17:09	5157.068	3.978705e-014	28/11/2022 15:17:10	5158.111	2.891275e-013	28/11/2022 15:17:11	5159.152	8.974595e-014	28/11/2022 15:17:11	5159.364	2.112151e-014	28/11/2022 15:17:12	5160.405	1.188388e-014
28/11/2022 15:17:44	5192.444	1.043127e-011	28/11/2022 15:17:44	5192.657	8.804329e-012	28/11/2022 15:17:45	5192.871	7.444912e-014	28/11/2022 15:17:46	5193.910	2.964439e-013	28/11/2022 15:17:47	5194.951	1.033086e-013	28/11/2022 15:17:47	5195.164	1.383184e-014	28/11/2022 15:17:48	5196.205	1.183562e-014
28/11/2022 15:18:20	5228.244	1.060270e-011	28/11/2022 15:18:20	5228.457	8.973545e-012	28/11/2022 15:18:20	5228.682	4.540662e-014	28/11/2022 15:18:21	5229.722	3.068521e-013	28/11/2022 15:18:22	5230.763	1.087802e-013	28/11/2022 15:18:23	5230.977	9.559784e-015	28/11/2022 15:18:24	5232.017	1.136406e-014
28/11/2022 15:18:56	5264.042	1.071925e-011	28/11/2022 15:18:56	5264.254	8.786508e-012	28/11/2022 15:18:56	5264.467	5.870938e-014	28/11/2022 15:18:57	5265.506	2.978927e-013	28/11/2022 15:18:58	5266.546	1.028016e-013	28/11/2022 15:18:58	5266.759	1.206810e-014	28/11/2022 15:18:59	5267.801	1.495002e-014
28/11/2022 15:19:32	5299.855	1.074818e-011	28/11/2022 15:19:32	5300.068	8.959308e-012	28/11/2022 15:19:32	5300.289	3.024536e-014	28/11/2022 15:19:33	5301.329	2.951914e-013	28/11/2022 15:19:34	5302.368	1.093607e-013	28/11/2022 15:19:34	5302.582	9.829686e-015	28/11/2022 15:19:35	5303.623	1.420399e-014
28/11/2022 15:20:07	5335.668	1.058329e-011	28/11/2022 15:20:08	5335.881	8.702438e-012	28/11/2022 15:20:08	5336.098	8.527236e-014	28/11/2022 15:20:09	5337.138	2.682689e-013	28/11/2022 15:20:10	5338.182	1.023646e-013	28/11/2022 15:20:10	5338.395	-1.085171e-016	28/11/2022 15:20:11	5339.436	6.035069e-015
28/11/2022 15:20:43	5371.491	1.053538e-011	28/11/2022 15:20:43	5371.704	8.683212e-012	28/11/2022 15:20:44	5371.921	5.188327e-014	28/11/2022 15:20:45	5372.961	2.804389e-013	28/11/2022 15:20:46	5374.002	1.036592e-013	28/11/2022 15:20:46	5374.215	1.096365e-014	28/11/2022 15:20:47	5375.257	1.177359e-014
28/11/2022 15:21:19	5407.279	1.060985e-011	28/11/2022 15:21:19	5407.492	9.005918e-012	28/11/2022 15:21:19	5407.710	6.120581e-014	28/11/2022 15:21:20	5408.751	2.795428e-013	28/11/2022 15:21:21	5409.790	1.051475e-013	28/11/2022 15:21:22	5410.004	1.260513e-014	28/11/2022 15:21:23	5411.044	1.244867e-014
28/11/2022 15:21:43	5431.151	1.067100e-011	28/11/2022 15:21:43	5431.364	8.718997e-012	28/11/2022 15:21:43	5431.577	4.948199e-014