File: pydatalab/example_data/XRD/example_mac.xye
0.000	    11.632	     2.650
0.001	    11.345	     2.672
0.002	    10.541	     2.475
0.003	     9.582	     2.183
0.004	    11.460	     2.594
0.005	     8.834	     2.233
0.006	     9.518	     2.282
0.007	    10.115	     2.213
0.008	    16.624	     3.107
0.009	    10.910	     2.486
0.010	     7.073	     1.670
0.011	     8.027	     1.958
0.012	    18.694	     3.415
0.013	    12.016	     2.349
0.014	    14.172	     2.640
0.015	    13.239	     2.613
0.016	    14.052	     2.823
0.017	    12.832	     2.561
0.018	    12.412	     2.418
0.019	     6.790	     1.723
0.020	    14.752	     2.803
0.021	    17.554	     3.002
0.022	    20.484	     3.375
0.023	    10.998	     2.383
0.024	     7.754	     1.933
0.025	    11.877	     2.485
0.026	    12.620	     2.620
0.027	    13.749	     2.710
0.028	    21.306	     3.513
0.029	    17.634	     2.936
0.030	    19.898	     3.264
0.031	    12.906	     2.650
0.032	    15.690	     2.877
0.033	    17.314	     3.004
0.034	     7.103	     1.571
0.035	    22.285	     3.600
0.036	    13.965	     2.597
0.037	    14.229	     2.710
0.038	    13.141	     2.543
0.039	    16.507	     3.003
0.040	    13.748	     2.658
0.041	    14.154	     2.753
0.042	    16.090	     3.032
0.043	    14.846	     2.840
0.044	     8.818	     2.038
0.045	    12.259	     2.547
0.046	    16.564	     2.947
0.047	    12.859	     2.461
0.048	     9.983	     2.178
0.049	    10.938	     2.431
0.050	    14.947	     2.827
0.051	    12.456	     2.485
0.052	    12.052	     2.584
0.053	    10.217	     2.429
0.054	    10.503	     2.385
0.055	    13.157	     2.711
0.056	    15.117	     2.973
0.057	    20.526	     3.384
0.058	    12.151	     2.389
0.059	    25.292	     3.814
0.060	    20.936	     3.230
0.061	    15.717	     2.991
0.062	     8.937	     2.069
0.063	    13.584	     2.579
0.064	     9.874	     2.247
0.065	    15.517	     2.848
0.066	    15.622	     2.459
0.067	    20.875	     3.371
0.068	     7.567	     1.928
0.069	    11.822	     2.613
0.070	    10.921	     2.425
0.071	     8.007	     1.967
0.072	    14.826	     2.986
0.073	    15.179	     2.843
0.074	    12.483	     2.436
0.075	    15.937	     2.979
0.076	    17.983	     3.170
0.077	     9.710	     2.263
0.078	     5.776	     1.628
0.079	    21.219	     3.585
0.080	    10.980	     2.439
0.081	    14.245	     2.896
0.082	     6.875	     1.691
0.083	    11.180	     2.384
0.084	    19.741	     3.209
0.085	    12.514	     2.464
0.086	    13.953	     2.767
0.087	    17.878	     3.292
0.088	    11.413	     2.236
0.089	    15.011	     2.564
0.090	    13.468	     2.747
0.091	    14.676	     2.793
0.092	    15.377	     2.752
0.093	    11.630	     2.423
0.094	    11.319	     2.617
0.095	    15.917	     2.995
0.096	    21.263	     3.179
0.097	    15.440	     2.577
0.098	    13.475	     2.599
0.099	    19.581	     3.375
0.100	    10.587	     2.241
0.101	    12.261	     2.518
0.102	    14.968	     2.871
0.103	    16.820	     2.989
0.104	     9.479	     1.955
0.105	    13.138	     2.658
0.106	    16.768	     3.108
0.107	    15.642	     2.789
0.108	    10.576	     2.201
0.109	    13.925	     3.007
0.110	    12.638	     2.624
0.111	    22.142	     3.472
0.112	    15.029	     2.503
0.113	    16.923	     3.090
0.114	    10.636	     2.473
0.115	    16.911	     3.081
0.116	    14.348	     2.785
0.117	    12.595	     2.749
0.118	    19.029	     3.145
0.119	    24.053	     3.490
0.120	    26.560	     3.977
0.121	    33.028	     4.166
0.122	    33.264	     3.944
0.123	    16.295	     2.768
0.124	    56.832	     6.112
0.125	    47.806	     4.643
0.126	    56.295	     5.164
0.127	    64.462	     6.320
0.128	    64.727	     6.013
0.129	    72.304	     6.036
0.130	   101.135	     7.454
0.131	   120.627	     8.346
0.132	   161.305	     9.243
0.133	   142.733	     8.154
0.134	   138.452	     8.804
0.135	   166.974	    10.254
0.136	    78.726	     6.169
0.137	   167.958	     9.121
0.138	   206.548	    10.891
0.139	   201.487	    10.580
0.140	   294.337	    12.098
0.141	   274.630	    11.445
0.142	   265.535	    12.579
0.143	   411.302	    16.158
0.144	   244.680	    10.965
0.145	   254.629	    11.625
0.146	   196.625	    10.077
0.147	   383.199	    14.416
0.148	   459.129	    14.617
0.149	   370.968	    13.625
0.150	   480.363	    17.179
0.151	   441.867	    15.670
0.152	   327.717	    12.402
0.153	   300.469	    12.885
0.154	   332.259	    13.889
0.155	   413.441	    14.337
0.156	   345.098	    12.659
0.157	   302.638	    13.545
0.158	   306.693	    13.855
0.159	   229.573	    10.545
0.160	   318.340	    12.977
0.161	   351.195	    14.538
0.162	   193.982	    10.549
0.163	   160.530	     8.709
0.164	   122.477	     7.811
0.165	   106.578	     7.809
0.166	    98.620	     7.432
0.167	    57.450	     5.272
0.168	    51.911	     5.346
0.169	    63.132	     6.133
0.170	    57.398	     5.352
0.171	    38.620	     4.316
0.172	    32.954	     4.607
0.173	    60.045	     6.214
0.174	    36.590	     4.326
0.175	    28.291	     3.636
0.176	    22.595	     3.454
0.177	    19.758	     3.375
0.178	    22.577	     3.477
0.179	    19.927	     3.183
0.180	    45.770	     5.365
0.181	    30.815	     4.162
0.182	    20.998	     3.102
0.183	    18.678	     2.809
0.184	    18.330	     3.135
0.185	    14.588	     2.648
0.186	    19.992	     3.205
0.187	    11.288	     2.341
0.188	    21.323	     3.608
0.189	    26.947	     3.715
0.190	    18.487	     2.804
0.191	    18.473	     3.103
0.192	    16.280	     2.898
0.193	    18.260	     3.160
0.194	    12.889	     2.390
0.195	    12.908	     2.583
0.196	    10.411	     2.240
0.197	    16.010	     2.960
0.198	    14.364	     2.702
0.199	    17.065	     3.059
0.200	    16.186	     3.055
0.201	     7.366	     1.874
0.202	    15.201	     2.798
0.203	    22.261	     3.474
0.204	    16.403	     3.005
0.205	    16.724	     2.929
0.206	    18.418	     3.074
0.207	    10.853	     2.362
0.208	    10.395	     2.376
0.209	    13.794	     2.609
0.210	    14.130	     2.619
0.211	    16.032	     3.004
0.212	    19.701	     3.343
0.213	     9.838	     2.007
0.214	    12.282	     2.616
0.215	    18.603	     3.373
0.216	    11.401	     2.374
0.217	    17.226	     3.178
0.218	    22.919	     3.705
0.219	    18.916	     3.298
0.220	    13.323	     2.708
0.221	    10.652	     2.255
0.222	    27.248	     4.107
0.223	    19.873	     3.288
0.224	    28.867	     3.989
0.225	    11.992	     2.237
0.226	     8.770	     2.085
0.227	    15.041	     2.654
0.228	    21.874	     3.198
0.229	    22.454	     3.439
0.230	    21.728	     3.603
0.231	    14.495	     2.833
0.232	    21.215	     3.503
0.233	    14.041	     2.537
0.234	    22.088	     3.657
0.235	    14.505	     2.787
0.236	    10.537	     2.152
0.237	    20.212	     3.375
0.238	    19.844	     3.185
0.239	    29.776	     4.056
0.240	    25.077	     3.778
0.241	    16.487	     2.843
0.242	    28.337	     3.960
0.243	    11.097	     2.198
0.244	    14.090	     2.600
0.245	    19.693	     3.298
0.246	    12.932	     2.495
0.247	    12.801	     2.371
0.248	    13.484	     2.579
0.249	    16.982	     3.065
0.250	    16.201	     2.978
0.251	     8.567	     2.051
0.252	    25.451	     3.797
0.253	    25.540	     3.732
0.254	    18.012	     3.016
0.255	    18.089	     2.800
0.256	    35.269	     4.725
0.257	     9.267	     2.329
0.258	    11.356	     2.443
0.259	    19.824	     3.322
0.260	    13.190	     2.610
0.261	    14.764	     2.829
0.262	    29.403	     4.106
0.263	    13.095	     2.483
0.264	    12.467	     2.540
0.265	    22.533	     3.413
0.266	    15.336	     2.583
0.267	    28.525	     4.084
0.268	    35.002	     4.234
0.269	    29.773	     3.702
0.270	    14.975	     2.451
0.271	    26.514	     4.039
0.272	    12.893	     2.549
0.273	    16.403	     2.867
0.274	    18.663	     3.329
0.275	    11.032	     2.463
0.276	    14.123	     2.770
0.277	    15.933	     2.918
0.278	    13.157	     2.663
0.279	    14.013	     2.885
0.280	    15.017	     2.845
0.281	    14.062	     2.701
0.282	    22.313	     3.803
0.283	    17.387	     3.002
0.284	    23.084	     3.337
0.285	    21.714	     3.303
0.286	    32.106	     4.503
0.287	    18.759	     3.107
0.288	    18.286	     2.983
0.289	    15.158	     2.841
0.290	    20.686	     3.344
0.291	    17.102	     3.067
0.292	    11.759	     2.418
0.293	    16.245	     2.796
0.294	    21.155	     3.248
0.295	    26.575	     3.804
0.296	    21.003	     3.407
0.297	    11.219	     2.456
0.298	    17.443	     3.169
0.299	    18.741	     3.125
0.300	    13.880	     2.464
0.301	    16.570	     2.909
0.302	    18.505	     3.244
0.303	    14.557	     2.726
0.304	    22.554	     3.527
0.305	    19.822	     3.335
0.306	    24.692	     3.844
0.307	    14.399	     2.606
0.308	    14.041	     2.814
0.309	    10.142	     2.369
0.310	    13.795	     2.690
0.311	    26.695	     3.875
0.312	    20.663	     3.250
0.313	    19.588	     3.278
0.314	    25.765	     3.852
0.315	    11.585	     2.294
0.316	     9.988	     2.390
0.317	    10.740	     2.587
0.318	     5.570	     1.475
0.319	    19.700	     3.236
0.320	    12.266	     2.550
0.321	    10.417	     2.461
0.322	    16.783	     2.870
0.323	    13.581	     2.611
0.324	    16.258	     3.219
0.325	    17.810	     3.128
0.326	    21.253	     3.336
0.327	    14.681	     2.785
0.328	    21.650	     3.359
0.329	    22.385	     3.161
0.330	    17.289	     2.834
0.331	    21.994	     3.567
0.332	    17.593	     3.190
0.333	    11.258	     2.447
0.334	    18.312	     3.405
0.335	     7.871	     2.053
0.336	    15.001	     2.839
0.337	    16.151	     2.847
0.338	    14.113	     2.813
0.339	    22.226	     3.508
0.340	    29.993	     3.877
0.341	    30.768	     3.865
0.342	    17.781	     2.905
0.343	    13.870	     2.817
0.344	    15.114	     2.799
0.345	    17.311	     3.015
0.346	    11.494	     2.452
0.347	    28.039	     3.914
0.348	    25.198	     3.336
0.349	    21.492	     3.269
0.350	    19.762	     3.361
0.351	    15.680	     2.852
0.352	    15.533	     2.781
0.353	    24.466	     3.632
0.354	    19.138	     3.125
0.355	    15.308	     2.889
0.356	    24.398	     3.627
0.357	    19.734	     3.264
0.358	    15.138	     2.719
0.359	    17.017	     2.876
0.360	    16.968	     2.927
0.361	    27.391	     4.048
0.362	    20.810	     3.533
0.363	    13.669	     2.540
0.364	    26.549	     3.845
0.365	    29.099	     4.092
0.366	    20.579	     3.328
0.367	    19.516	     3.265
0.368	    18.260	     3.112
0.369	    21.653	     3.524
0.370	    11.665	     2.269
0.371	    24.886	     3.743
0.372	    26.616	     3.698
0.373	    35.863	     4.609
0.374	    12.559	     2.572
0.375	    11.859	     2.403
0.376	    22.235	     3.684
0.377	    18.514	     3.172
0.378	    16.976	     2.886
0.379	    13.276	     2.544
0.380	    15.801	     2.747
0.381	    23.975	     3.591
0.382	    21.942	     3.443
0.383	    18.672	     2.921
0.384	    37.892	     4.683
0.385	    24.673	     3.677
0.386	    16.688	     2.958
0.387	    10.503	     2.476
0.388	    10.689	     2.663
0.389	     9.315	     2.090
0.390	    17.614	     2.843
0.391	    19.343	     3.235
0.392	    16.741	     2.911
0.393	    28.134	     3.804
0.394	    18.653	     2.839
0.395	    20.838	     3.423
0.396	    12.506	     2.704
0.397	    19.602	     3.336
0.398	    20.526	     3.411
0.399	    13.038	     2.619
0.400	    16.472	     2.989
0.401	    15.187	     2.812
0.402	    20.146	     3.197
0.403	    28.478	     4.061
0.404	    14.758	     2.789
0.405	    23.580	     3.781
0.406	    10.340	     2.376
0.407	    18.854	     3.427
0.408	    17.349	     3.036
0.409	    19.276	     3.135
0.410	    14.653	     2.751
0.411	    14.527	     2.796
0.412	    22.142	     3.415
0.413	    24.510	     3.808
0.414	     7.779	     2.018
0.415	    23.663	     3.821
0.416	    15.494	     2.679
0.417	    16.008	     2.814
0.418	    12.999	     2.689
0.419	    15.522	     2.822
0.420	    20.373	     3.182
0.421	    26.610	     4.003
0.422	    10.889	     2.354
0.423	    14.481	     2.625
0.424	    22.514	     3.414
0.425	    23.945	     3.355
0.426	    26.267	     3.625
0.427	    21.575	     3.309
0.428	    28.796	     3.910
0.429	    26.303	     3.907
0.430	    23.281	     3.400
0.431	    32.947	     4.098
0.432	    26.146	     3.816
0.433	    34.360	     4.481
0.434	    49.964	     5.259
0.435	    36.401	     4.173
0.436	    29.289	     3.621
0.437	    46.039	     5.096
0.438	    44.771	     4.723
0.439	    36.868	     4.111
0.440	    39.424	     4.679
0.441	    57.427	     5.675
0.442	    45.111	     4.942
0.443	    32.761	     4.158
0.444	    33.755	     4.243
0.445	    37.950	     4.367
0.446	    45.581	     4.779
0.447	    42.248	     4.921
0.448	    30.056	     4.248
0.449	    42.748	     4.734
0.450	    45.963	     4.755
0.451	    64.107	     5.969
0.452	    61.633	     5.448
0.453	    60.573	     5.520
0.454	    54.890	     5.422
0.455	    57.336	     5.646
0.456	    66.958	     6.294
0.457	    68.685	     6.158
0.458	    91.339	     7.331
0.459	    68.159	     6.226
0.460	    70.838	     5.981
0.461	    70.538	     6.015
0.462	    48.487	     4.927
0.463	    47.052	     5.230
0.464	    42.065	     4.651
0.465	    76.114	     6.360
0.466	    60.625	     5.629
0.467	    68.371	     5.952
0.468	    61.780	     5.503
0.469	    99.570	     7.819
0.470	    75.658	     6.667
0.471	    74.379	     6.385
0.472	    84.183	     6.478
0.473	    84.837	     6.598
0.474	    63.998	     5.908
0.475	    69.838	     6.082
0.476	    78.096	     6.359
0.477	    64.588	     5.734
0.478	    68.570	     6.213
0.479	    73.611	     6.230
0.480	    81.883	     6.665
0.481	    88.098	     7.338
0.482	    84.946	     6.678
0.483	    83.792	     6.369
0.484	    75.666	     6.597
0.485	    95.710	     7.394
0.486	   113.291	     7.611
0.487	   136.362	     8.540
0.488	    93.915	     6.926
0.489	    78.257	     6.736
0.490	    84.084	     6.636
0.491	   104.207	     7.316
0.492	   125.374	     8.496
0.493	   103.122	     7.890
0.494	   106.644	     7.635
0.495	   104.110	     7.063
0.496	   124.457	     8.413
0.497	   114.386	     7.652
0.498	   118.414	     7.654
0.499	    96.133	     7.040
0.500	   120.299	     8.576
0.501	    89.569	     6.863
0.502	   103.957	     7.159
0.503	    92.371	     6.654
0.504	   152.394	     9.551
0.505	   151.123	     8.704
0.506	   123.162	     7.460
0.507	   137.224	     8.510
0.508	   187.867	    10.391
0.509	   135.877	     8.421
0.510	    98.665	     6.874
0.511	   139.845	     9.080
0.512	    97.656	     7.090
0.513	   121.094	     7.875
0.514	   101.887	     7.065
0.515	   134.625	     8.862
0.516	   163.459	     9.189
0.517	   217.857	    10.492
0.518	   149.450	     8.655
0.519	   131.578	     8.683
0.520	   134.653	     8.463
0.521	   128.107	     8.145
0.522	   137.859	     8.632
0.523	   173.195	    10.206
0.524	    95.008	     7.051
0.525	   124.684	     8.375
0.526	   130.272	     8.383
0.527	   151.167	     8.746
0.528	   174.750	     9.346
0.529	   153.695	     9.052
0.530	   134.531	     8.728
0.531	   112.528	     7.402
0.532	   132.262	     8.208
0.533	   134.678	     8.643
0.534	   109.021	     7.323
0.535	   155.468	     9.017
0.536	   120.118	     7.528
0.537	   134.869	     8.400
0.538	   126.943	     8.356
0.539	   121.288	     8.006
0.540	   119.463	     7.927
0.541	   136.817	     8.532
0.542	   185.759	    10.350
0.543	   129.628	     7.885
0.544	   195.107	    10.595
0.545	    67.123	     4.797
0.546	   170.481	     9.750
0.547	   116.750	     7.858
0.548	   139.935	     8.950
0.549	   127.871	     8.535
0.550	   121.738	     7.853
0.551	   130.165	     8.023
0.552	    66.230	     4.897
0.553	   145.679	     9.318
0.554	   120.992	     8.058
0.555	   122.038	     7.991
0.556	   130.098	     8.670
0.557	   101.327	     7.537
0.558	   122.665	     8.064
0.559	   146.748	     9.091
0.560	   124.165	     8.525
0.561	   119.724	     8.144
0.562	    95.937	     6.999
0.563	   174.110	    10.314
0.564	    94.517	     7.315
0.565	    88.680	     6.752
0.566	    91.486	     6.687
0.567	   101.125	     7.711
0.568	    73.968	     6.395
0.569	    93.192	     6.894
0.570	    94.462	     7.081
0.571	   105.751	     7.837
0.572	   104.666	     7.335
0.573	   146.039	     8.691
0.574	   109.197	     7.494
0.575	   106.288	     7.478
0.576	   131.591	     8.356
0.577	   103.016	     7.223
0.578	    85.436	     6.812
0.579	   111.524	     8.221
0.580	    70.167	     5.772
0.581	    93.513	     6.971
0.582	   103.046	     7.636
0.583	    80.348	     6.773
0.584	    84.906	     6.473
0.585	    61.285	     5.167
0.586	   104.785	     7.972
0.587	    75.930	     6.300
0.588	   104.278	     7.349
0.589	   106.259	     7.670
0.590	    78.855	     6.764
0.591	    65.043	     5.461
0.592	    88.332	     6.570
0.593	    86.756	     7.115
0.594	    63.880	     5.810
0.595	   109.490	     7.383
0.596	   118.143	     7.861
0.597	   113.113	     8.206
0.598	   113.272	     7.759