File: pydatalab/example_data/XRD/example_mythen.dat
2.084000 2866.69 53.5415
2.088000 2866.96 53.544
2.092000 2781.03 52.7355
2.096000 2834.86 53.2434
2.100000 2908.42 53.9298
2.104000 2685.86 51.8252
2.108000 2800.17 52.9166
2.112000 2748.54 52.4265
2.116000 2699.34 51.9552
2.120000 2842.75 53.3175
2.124000 2840.7 53.2982
2.128000 2808.49 52.9952
2.132000 2921.21 54.0482
2.136000 2826.93 53.1689
2.140000 2799.02 52.9058
2.144000 2796.67 52.8835
2.148000 2820.81 53.1113
2.152000 2855.93 53.4409
2.156000 2766.35 52.5961
2.160000 2690.71 51.8721
2.164000 2830.22 53.1998
2.168000 2906.15 53.9087
2.172000 2973.57 54.5304
2.176000 2770.22 52.6329
2.180000 2938.69 54.2097
2.184000 2875.61 53.6247
2.188000 2926.28 54.0951
2.192000 2781.33 52.7383
2.196000 2835.26 53.2471
2.200000 2872.03 53.5913
2.204000 2902.8 53.8776
2.208000 2938.3 54.2061
2.212000 2913.69 53.9786
2.216000 3008.78 54.8524
2.220000 2947.39 54.2899
2.224000 2905.47 53.9024
2.228000 2827.58 53.175
2.232000 2937.47 54.1984
2.236000 2999.33 54.7662
2.240000 2953.26 54.3439
2.244000 2933.35 54.1604
2.248000 2883.26 53.696
2.252000 2941.11 54.232
2.256000 3037.97 55.1178
2.260000 2860.41 53.4828
2.264000 2882.06 53.6848
2.268000 2836.52 53.259
2.272000 2876.73 53.6351
2.276000 3013.7 54.8972
2.280000 3032.09 55.0644
2.284000 3011.57 54.8778
2.288000 2900.16 53.8531
2.292000 3036.23 55.102
2.296000 3071.48 55.421
2.300000 3047.71 55.2061
2.304000 2950.75 54.3208
2.308000 2988.13 54.6638
2.312000 2910.02 53.9446
2.316000 3022.48 54.9771
2.320000 3082.41 55.5194
2.324000 2988.24 54.6648
2.328000 2999 54.7632
2.332000 3042.57 55.1595
2.336000 3002.28 54.793
2.340000 2990.03 54.6812
2.344000 3031.73 55.0612
2.348000 2986.9 54.6525
2.352000 3022.2 54.9745
2.356000 2994.39 54.721
2.360000 3003.19 54.8014
2.364000 3002.85 54.7983
2.368000 3020.77 54.9615
2.372000 2917.35 54.0125
2.376000 2993.27 54.7108
2.380000 2951.51 54.3278
2.384000 3081.53 55.5116
2.388000 3021.63 54.9694
2.392000 3051.8 55.2431
2.396000 3111.97 55.785
2.400000 2954.9 54.359
2.404000 2945.34 54.271
2.408000 2981.81 54.6059
2.412000 3034.64 55.0876
2.416000 3069.09 55.3994
2.420000 3077.59 55.476
2.424000 3080.97 55.5065
2.428000 3021.49 54.9681
2.432000 3010.44 54.8675
2.436000 3058.55 55.3042
2.440000 2953.45 54.3456
2.444000 3062.41 55.339
2.448000 3034.86 55.0895
2.452000 3034.83 55.0893
2.456000 3001.89 54.7895
2.460000 3005 54.8179
2.464000 3068.58 55.3947
2.468000 2986.5 54.6489
2.472000 2977.95 54.5706
2.476000 2973.06 54.5258
2.480000 2946.38 54.2806
2.484000 3078.28 55.4823
2.488000 3064.42 55.3572
2.492000 3053.47 55.2582
2.496000 3122.16 55.8763
2.500000 2999.04 54.7635
2.504000 2963.29 54.4361
2.508000 3086.24 55.5539
2.512000 2991.37 54.6934
2.516000 3034.55 55.0868
2.520000 2985.94 54.6438
2.524000 3045.76 55.1884
2.528000 3074.06 55.4442
2.532000 2999.72 54.7697
2.536000 3060.53 55.322
2.540000 3180.2 56.3932
2.544000 3092.97 55.6144
2.548000 3010.05 54.8639
2.552000 2984.16 54.6274
2.556000 2973.82 54.5327
2.560000 3006.52 54.8318
2.564000 3019.56 54.9505
2.568000 3007.31 54.8389
2.572000 2989.89 54.6798
2.576000 3032.32 55.0665
2.580000 3006.05 54.8275
2.584000 2995.22 54.7286
2.588000 3047.22 55.2016
2.592000 3055.76 55.279
2.596000 3001.95 54.79
2.600000 3046.24 55.1928
2.604000 3082.99 55.5247
2.608000 3069.36 55.4018
2.612000 2987.86 54.6614
2.616000 3028.06 55.0278
2.620000 3047.44 55.2036
2.624000 3015.17 54.9105
2.628000 2977.11 54.5629
2.632000 3068.08 55.3902
2.636000 3063.87 55.3522
2.640000 3113.75 55.8009
2.644000 3101.36 55.6898
2.648000 3076.61 55.4672
2.652000 3031.15 55.0559
2.656000 3052.94 55.2534
2.660000 3020 54.9546
2.664000 3089.33 55.5817
2.668000 3092.85 55.6134
2.672000 3119.58 55.8532
2.676000 3030.25 55.0477
2.680000 3007.71 54.8426
2.684000 3072.34 55.4287
2.688000 3116.52 55.8258
2.692000 3045.55 55.1865
2.696000 3022.52 54.9775
2.700000 3094.27 55.6261
2.704000 3010.2 54.8653
2.708000 3013.63 54.8966
2.712000 3065.86 55.3702
2.716000 3039.87 55.135
2.720000 3139.67 56.0328
2.724000 3190.18 56.4817
2.728000 2961.07 54.4157
2.732000 3116.8 55.8283
2.736000 3122.8 55.882
2.740000 3067.79 55.3876
2.744000 3117.88 55.838
2.748000 3127.5 55.924
2.752000 3062.52 55.3401
2.756000 3029.88 55.0444
2.760000 3132.22 55.9662
2.764000 3083.2 55.5265
2.768000 3044.13 55.1736
2.772000 3034.34 55.0848
2.776000 3028.08 55.028
2.780000 3142.63 56.0592
2.784000 3138.26 56.0202
2.788000 3122.53 55.8796
2.792000 3079.5 55.4932
2.796000 3088.36 55.573
2.800000 3039.89 55.1352
2.804000 3042.59 55.1597
2.808000 3001.06 54.782
2.812000 3150.13 56.126
2.816000 3051.76 55.2427
2.820000 3030.81 55.0528
2.824000 3144.26 56.0737
2.828000 3118.18 55.8407
2.832000 3100.59 55.6829
2.836000 3133.66 55.9791
2.840000 3072.62 55.4312
2.844000 3110.24 55.7696
2.848000 3074.58 55.4489
2.852000 3106.72 55.7379
2.856000 3177.85 56.3724
2.860000 3091.61 55.6023
2.864000 3042.76 55.1612
2.868000 3096.59 55.647
2.872000 3121.1 55.8668
2.876000 3056.5 55.2856
2.880000 3057.66 55.2961
2.884000 3026.7 55.0155
2.888000 3152.71 56.149
2.892000 2992.85 54.7069
2.896000 3158.71 56.2024
2.900000 3090.04 55.5881
2.904000 3041.68 55.1514
2.908000 3104.08 55.7142
2.912000 3193.59 56.5118
2.916000 3155.49 56.1738
2.920000 3191.93 56.4972
2.924000 3127.91 55.9277
2.928000 3049.61 55.2233
2.932000 3066.3 55.3742
2.936000 3032.99 55.0726
2.940000 3036.38 55.1034
2.944000 3101.67 55.6927
2.948000 3184.44 56.4308
2.952000 3130.48 55.9507
2.956000 3163.96 56.2491
2.960000 3060.36 55.3206
2.964000 3082.82 55.5232
2.968000 3174.4 56.3418
2.972000 3026.18 55.0107
2.976000 3015.89 54.9171
2.980000 3081.44 55.5108
2.984000 3135.97 55.9997
2.988000 3123.23 55.8859
2.992000 3111.73 55.7829
2.996000 3135.15 55.9924
3.000000 3078.77 55.4867
3.004000 3182.66 56.4151
3.008000 3166.57 56.2723
3.012000 3136.02 56.0001
3.016000 3165.37 56.2616
3.020000 3112.44 55.7893
3.024000 3084.56 55.5388
3.028000 3161.12 56.2239
3.032000 3115.53 55.8169
3.036000 3120.78 55.8639
3.040000 3109.7 55.7647
3.044000 3086.7 55.5581
3.048000 3147.15 56.0995
3.052000 3270.96 57.1923
3.056000 3152.15 56.144
3.060000 3130.34 55.9494
3.064000 3066.77 55.3785
3.068000 3138.63 56.0235
3.072000 3067.57 55.3856
3.076000 3107.03 55.7407
3.080000 3016.39 54.9217
3.084000 3115.45 55.8162
3.088000 3184.15 56.4283
3.092000 3211.84 56.6731
3.096000 3219.84 56.7437
3.100000 3105.95 55.731
3.104000 3145 56.0803
3.108000 3162.47 56.2358
3.112000 3154.57 56.1656
3.116000 3053.87 55.2618
3.120000 3127.18 55.9212
3.124000 3045.72 55.188
3.128000 3203.86 56.6026
3.132000 3109.33 55.7613
3.136000 3132.64 55.97
3.140000 3206.34 56.6245
3.144000 3115.58 55.8174
3.148000 3071.45 55.4207
3.152000 3089.57 55.5839
3.156000 3084.92 55.542
3.160000 3120.48 55.8612
3.164000 3155.7 56.1756
3.168000 3166.51 56.2718
3.172000 3100.75 55.6844
3.176000 3082.23 55.5179
3.180000 3061.18 55.3279
3.184000 3079.13 55.4899
3.188000 3229.17 56.8258
3.192000 3179.9 56.3906
3.196000 3182.59 56.4145
3.200000 3133.95 55.9817
3.204000 3080.29 55.5003
3.208000 3136.94 56.0084
3.212000 3105.72 55.729
3.216000 3028.31 55.0301
3.220000 3089.7 55.5851
3.224000 3165.18 56.2599
3.228000 3149.88 56.1238
3.232000 3127.02 55.9198
3.236000 3153.23 56.1536
3.240000 3163.13 56.2417
3.244000 3059.02 55.3084
3.248000 3104.74 55.7202
3.252000 3177.37 56.3682
3.256000 3134.53 55.9869
3.260000 3150.89 56.1328
3.264000 3202.85 56.5937
3.268000 3161.89 56.2307
3.272000 3227.69 56.8128
3.276000 3200.32 56.5713
3.280000 3103.99 55.7135
3.284000 3120.47 55.8611
3.288000 3119.71 55.8543
3.292000 3129.87 55.9453
3.296000 3173.26 56.3317
3.300000 3203.61 56.6005
3.304000 3166.41 56.2708
3.308000 3214.74 56.6987
3.312000 3216.13 56.7109
3.316000 3184.65 56.4327
3.320000 3045.72 55.188
3.324000 3143.17 56.064
3.328000 3154.94 56.1689
3.332000 3189.41 56.4749
3.336000 3196.05 56.5336
3.340000 3157.55 56.1921
3.344000 3177.28 56.3674
3.348000 3169.65 56.2996
3.352000 3190.46 56.4841
3.356000 3124.2 55.8946
3.360000 3193.46 56.5107
3.364000 3117.79 55.8372
3.368000 3108.07 55.7501
3.372000 3108.68 55.7555
3.376000 3185.17 56.4373
3.380000 3153.93 56.1598
3.384000 3113.12 55.7953
3.388000 3149.01 56.116
3.392000 3139.78 56.0338
3.396000 3138.88 56.0257
3.400000 3076.28 55.4642
3.404000 3120.43 55.8608
3.408000 3187.14 56.4547
3.412000 3149.5 56.1204
3.416000 3141.02 56.0448
3.420000 3113.69 55.8005
3.424000 3165.43 56.2621
3.428000 3063.52 55.349
3.432000 3161.3 56.2254
3.436000 3204.36 56.6071
3.440000 3143.82 56.0697
3.444000 3142.57 56.0587
3.448000 3106.75 55.7382
3.452000 3133.69 55.9794
3.456000 3113.23 55.7963
3.460000 3226.89 56.8057
3.464000 3110.96 55.776
3.468000 3105.88 55.7304
3.472000 3152.95 56.1511
3.476000 3180.43 56.3953
3.480000 3205.63 56.6183
3.484000 3176.01 56.3561
3.488000 3182.07 56.4099
3.492000 3216.91 56.7178
3.496000 3152.09 56.1435
3.500000 3183.14 56.4194
3.504000 3119.51 55.8526
3.508000 3126.12 55.9117
3.512000 3112.13 55.7864
3.516000 3148.66 56.113
3.520000 3141.3 56.0473
3.524000 3146.61 56.0947
3.528000 3224.52 56.7848
3.532000 3241 56.9298
3.536000 3283.46 57.3015
3.540000 3180.97 56.4001
3.544000 3199.87 56.5674
3.548000 3140.84 56.0432
3.552000 3209.06 56.6485
3.556000 3237.97 56.9032
3.560000 3083.29 55.5274
3.564000 3170.15 56.3041
3.568000 3139.41 56.0304
3.572000 3157.37 56.1905
3.576000 3181.61 56.4057
3.580000 3225.26 56.7914
3.584000 3220.18 56.7466
3.588000 3141.83 56.052
3.592000 3170.35 56.3059
3.596000 3102.49 55.7
3.600000 3175.06 56.3477
3.604000 3193.67 56.5126
3.608000 3175.74 56.3537
3.612000 3048.86 55.2165
3.616000 3131.45 55.9594
3.620000 3164.83 56.2568
3.624000 3213.45 56.6873
3.628000 3177.21 56.3668
3.632000 3117.94 55.8385
3.636000 3098.32 55.6625
3.640000 3190.88 56.4879
3.644000 3137.94 56.0173
3.648000 3205.71 56.619
3.652000 3111.46 55.7804
3.656000 3157.18 56.1888
3.660000 3147.15 56.0995
3.664000 3196.32 56.536
3.668000 3171.52 56.3163
3.672000 3106.97 55.7402
3.676000 3234.05 56.8687
3.680000 3198.36 56.554
3.684000 3228.52 56.8201
3.688000 3290.74 57.365
3.692000 3222.61 56.7681
3.696000 3126.27 55.913
3.700000 3113.26 55.7966
3.704000 3089.8 55.5859
3.708000 3149.19 56.1176
3.712000 3291.22 57.3691
3.716000 3210.78 56.6638
3.720000 3195.82 56.5315
3.724000 3230.52 56.8376
3.728000 3147.16 56.0996
3.732000 3186.53 56.4494
3.736000 3240.52 56.9256
3.740000 3219.83 56.7436
3.744000 3139.32 56.0296
3.748000 3178.38 56.3771
3.752000 3137.83 56.0164
3.756000 3120.12 55.8581
3.760000 3123.5 55.8883
3.764000 3209.16 56.6495
3.768000 3192.65 56.5036
3.772000 3204.89 56.6118
3.776000 3128.67 55.9345
3.780000 3144.33 56.0744
3.784000 3249.24 57.0021
3.788000 3176.45 56.36
3.792000 3158.8 56.2032
3.796000 3222.49 56.7669
3.800000 3141.84 56.0521
3.804000 3208.71 56.6454
3.808000 3231.09 56.8427
3.812000 3085.66 55.5488
3.816000 3234.66 56.8741
3.820000 3209.06 56.6486
3.824000 3118.33 55.842
3.828000 3175.98 56.3558
3.832000 3147.96 56.1067
3.836000 3219.49 56.7405
3.840000 3138.31 56.0206
3.844000 3147.98 56.1068
3.848000 3241.62 56.9352
3.852000 3237.57 56.8997
3.856000 3224.87 56.7879
3.860000 3176.49 56.3603
3.864000 3262.49 57.1182
3.868000 3230.24 56.8352
3.872000 3287.99 57.341
3.876000 3165.84 56.2658
3.880000 3176.09 56.3568
3.884000 3157.26 56.1895
3.888000 3164.64 56.2551
3.892000 3176.13 56.3572
3.896000 3161.41 56.2264
3.900000 3185.63 56.4414
3.904000 3175.98 56.3558
3.908000 3128.04 55.9289
3.912000 3241.89 56.9376
3.916000 3172.82 56.3278
3.920000 3161.02 56.223
3.924000 3159.05 56.2055
3.928000 3234.93 56.8764
3.932000 3247.36 56.9856
3.936000 3260.2 57.0982
3.940000 3175.67 56.3531
3.944000 3127.34 55.9226
3.948000 3151.1 56.1347
3.952000 3211.65 56.6714
3.956000 3238.87 56.9111
3.960000 3147.99 56.107
3.964000 3277.17 57.2466
3.968000 3133.46 55.9773
3.972000 3246.24 56.9758
3.976000 3261.94 57.1134
3.980000 3245.55 56.9697
3.984000 3197.17 56.5436
3.988000 3216.18 56.7114
3.992000 3183.62 56.4235
3.996000 3186.41 56.4483
4.000000 3232.1 56.8516
4.004000 3190.77 56.4869
4.008000 3165.54 56.2632
4.012000 3252.95 57.0347
4.016000 3264.97 57.1399
4.020000 3259.26 57.0899
4.024000 3235.88 56.8848
4.028000 3159.96 56.2136
4.032000 3204.55 56.6088
4.036000 3174.64 56.344
4.040000 3226.66 56.8037
4.044000 3290.62 57.3639
4.048000 3159.64 56.2106
4.052000 3185.61 56.4412
4.056000 3193.08 56.5073
4.060000 3174.36 56.3414
4.064000 3177.31 56.3676
4.068000 3156.76 56.185
4.072000 3236.94 56.8941
4.076000 3252.47 57.0304
4.080000 3151.79 56.1408
4.084000 3159.65 56.2108
4.088000 3199.26 56.562
4.092000 3184.5 56.4314
4.096000 3181.37 56.4036
4.100000 3183.99 56.4269
4.104000 3199.71 56.566
4.108000 3136.77 56.0068
4.112000 3176.46 56.3601
4.116000 3204.77 56.6107
4.120000 3243.47 56.9514
4.124000 3217.62 56.7241
4.128000 3287.34 57.3353
4.132000 3247.39 56.9859
4.136000 3146.46 56.0933
4.140000 3150.19 56.1266
4.144000 3247.36 56.9856
4.148000 3240.18 56.9226
4.152000 3163.48 56.2448
4.156000 3145.09 56.0811
4.160000 3168.58 56.2901
4.164000 3132.36 55.9675
4.168000 3136.56 56.005
4.172000 3289.19 57.3514
4.176000 3216.04 56.7101
4.180000 3139.06 56.0273
4.184000 3192.63 56.5033
4.188000 3249.46 57.0041
4.192000 3206.19 56.6232
4.196000 3225.13 56.7902
4.200000 3196.6 56.5385
4.204000 3179.91 56.3907
4.208000 3207.55 56.6352
4.212000 3228.92 56.8236
4.216000 3197.6 56.5473
4.220000 3188.18 56.4639
4.224000 3265.17 57.1417
4.228000 3171.23 56.3137
4.232000 3191.25 56.4911
4.236000 3214.61 56.6976
4.240000 3162.73 56.2382
4.244000 3141.44 56.0486
4.248000 3193 56.5066
4.252000 3163.43 56.2444
4.256000 3212.64 56.6802
4.260000 3251.03 57.0178
4.264000 3262.55 57.1187
4.268000 3188.28 56.4649
4.272000 3123.78 55.8908
4.276000 3196.23 56.5352
4.280000 3237.38 56.8979
4.284000 3263.2 57.1244
4.288000 3239.34 56.9152
4.292000 3274.2 57.2206
4.296000 3187.44 56.4575
4.300000 3214.28 56.6946
4.304000 3234.37 56.8715
4.308000 3218.78 56.7343
4.312000 3285.48 57.3191
4.316000 3277.74 57.2515
4.320000 3204.27 56.6063
4.324000 3217.89 56.7264
4.328000 3301.66 57.46
4.332000 3123.77 55.8907
4.336000 3135.72 55.9975
4.340000 3276.55 57.2412
4.344000 3215.84 56.7083
4.348000 3157.75 56.1938
4.352000 3175.62 56.3526
4.356000 3211.74 56.6722
4.360000 3172.86 56.3281
4.364000 3126 55.9107
4.368000 3166.13 56.2684
4.372000 3249.41 57.0036
4.376000 3296.04 57.4112
4.380000 3233 56.8595
4.384000 3225.89 56.7969
4.388000 3239.35 56.9153
4.392000 3223.54 56.7762
4.396000 3275.21 57.2295
4.400000 3240.75 56.9276
4.404000 3232.64 56.8563
4.408000 3135.85 55.9987
4.412000 3139.52 56.0314
4.416000 3233.45 56.8634
4.420000 3242.16 56.94
4.424000 3159.96 56.2136
4.428000 3162.77 56.2386
4.432000 3147.24 56.1002
4.436000 3285.97 57.3234
4.440000 3301.85 57.4617
4.444000 3215.39 56.7044
4.448000 3263.86 57.1302
4.452000 3282.53 57.2934
4.456000 3207.9 56.6383
4.460000 3170.92 56.3109
4.464000 3206.58 56.6267
4.468000 3217.13 56.7198
4.472000 3222.47 56.7668
4.476000 3213.13 56.6845
4.480000 3178.44 56.3776
4.484000 3264.71 57.1377
4.488000 3206.36 56.6247
4.492000 3184.61 56.4324
4.496000 3218.02 56.7276
4.500000 3297.62 57.4249
4.504000 3203.02 56.5952
4.508000 3125.47 55.9059
4.512000 3207.91 56.6384
4.516000 3278.08 57.2545
4.520000 3273.83 57.2174
4.524000 3198.26 56.5532
4.528000 3148.73 56.1135
4.532000 3211.09 56.6665
4.536000 3253.58 57.0401
4.540000 3318.41 57.6057
4.544000 3235.41 56.8806
4.548000 3207.43 56.6342
4.552000 3191.82 56.4962
4.556000 3208.02 56.6394
4.560000 3095.55 55.6377
4.564000 3313.17 57.5602
4.568000 3288.09 57.3419
4.572000 3196.13 56.5344
4.576000 3210.39 56.6603
4.580000 3225.46 56.7931
4.584000 3211.39 56.6691
4.588000 3203.73 56.6015
4.592000 3101.41 55.6903
4.596000 3225.46 56.7931
4.600000 3212.67 56.6804
4.604000 3223.11 56.7724
4.608000 3180.97 56.4001
4.612000 3068.84 55.3971
4.616000 3249.23 57.002
4.620000 3252.99 57.035
4.624000 3248.88 56.9989
4.628000 3162.01 56.2317
4.632000 3160.42 56.2176
4.636000 3232.7 56.8568
4.640000 3211.95 56.6741
4.644000 3170.64 56.3085
4.648000 3152.69 56.1488
4.652000 3224.79 56.7872
4.656000 3236.43 56.8897
4.660000 3163.21 56.2424
4.664000 3205.7 56.6189
4.668000 3298.82 57.4354
4.672000 3178.25 56.376
4.676000 3187.96 56.462
4.680000 3296.53 57.4154
4.684000 3181.5 56.4048
4.688000 3138.42 56.0216
4.692000 3291.79 57.3741
4.696000 3270.95 57.1922
4.700000 3143.97 56.0711
4.704000 3156.87 56.186
4.708000 3284.58 57.3112
4.712000 3321.32 57.6309
4.716000 3310.79 57.5395
4.720000 3234.92 56.8763
4.724000 3186.66 56.4505
4.728000 3222.87 56.7703
4.732000 3171.87 56.3193
4.736000 3140.72 56.0421
4.740000 3262.11 57.1149
4.744000 3273.59 57.2153
4.748000 3223.64 56.7771
4.752000 3196.12 56.5342
4.756000 3166.16 56.2687
4.760000 3210.27 56.6592
4.764000 3165.68 56.2644
4.768000 3162.25 56.2339
4.772000 3229.2 56.826
4.776000 3200.45 56.5725
4.780000 3169.76 56.3006
4.784000 3254.74 57.0504
4.788000 3303.47 57.4758
4.792000 3214.23 56.6941
4.796000 3215.69 56.7071
4.800000 3167.44 56.2801
4.804000 3106.26 55.7338
4.808000 3067.38 55.3839
4.812000 3266.19 57.1506
4.816000 3233.18 56.861
4.820000 3264.53 57.1361
4.824000 3247.42 56.9862
4.828000 3200.27 56.5709
4.832000 3177.51 56.3694
4.836000 3164.65 56.2552
4.840000 3171.64 56.3174
4.844000 3181.28 56.4028
4.848000 3162.88 56.2394
4.852000 3221.28 56.7563
4.856000 3191.25 56.4912
4.860000 3171.82 56.3189
4.864000 3144.1 56.0723
4.868000 3203.92 56.6032
4.872000 3215.09 56.7018
4.876000 3245.56 56.9698
4.880000 3217.12 56.7197
4.884000 3293.42 57.3884
4.888000 3125.08 55.9024
4.892000 3171.53 56.3164
4.896000 3199.04 56.56
4.900000 3168 56.285
4.904000 3128.02 55.9287
4.908000 3169.78 56.3008
4.912000 3181.82 56.4076
4.916000 3185.46 56.4399
4.920000 3121.74 55.8725
4.924000 3158.94 56.2044
4.928000 3169.49 56.2982
4.932000 3156.06 56.1788
4.936000 3154.3 56.1632
4.940000 3124.7 55.899
4.944000 3191.57 56.4939
4.948000 3277.08 57.2458
4.952000 3222.6 56.7679
4.956000 3146.28 56.0917
4.960000 3077.02 55.4709
4.964000 3285.69 57.3209
4.968000 3217.13 56.7197
4.972000 3254.08 57.0446
4.976000 3252.86 57.0339
4.980000 3231.91 56.8499
4.984000 3201.28 56.5798
4.988000 3195.2 56.5261
4.992000 3229.13 56.8254
4.996000 3180.02 56.3917
5.000000 3259.56 57.0926