File: pydatalab/example_data/XRD/example_bmb.xye
/* /data/apr17/11bmb_3294.mda APR 12, 2017 01:23:16.4721
# Run no. =               3294
# No. steps =             34053
# Scan time =             APR 12, 2017 01:23:16.4721
# Scan Comment =          UserControl Robotic Collection
# Sample Comment =        ANL0AC4032
# User sample name =      eel69B
# Composition =           MnB
# Proposal number =       51762
# Email(s) =              jdbocarsly@mrl.ucsb.edu, stephendwilson
# Temp (K) =              300.03
# Barcode ID =            UserControl Data
# Start 2theta (deg) =    -6.0
# End 2theta (deg) =      28.0
# Nominal 2theta step (deg) =     0.001
# Time per step (sec) =   0.1
# Actual 2theta step (deg) =     0.0009984375
# 100/Ring Current[0] =   0.983
# Monitor I0 [0] =        8336019.6
# Monitor I1 [0] =        7092664.5
# Gonio._radius [mm] =    1000.0
# Calibration file =      /home/beams/USER11BM/Users/GUP51762/11bmb_3283.calib
# Calibrated wavelength = 0.414581
# Normalization factor  = 8.1774
# */
 0.5 662.407 37.7442
 0.500998 644.695 37.1284
 0.501997 621.629 36.5042
 0.502995 608.184 36.1518
 0.503994 594.195 35.5557
 0.504992 602.318 35.9417
 0.505991 657.432 37.5492
 0.506989 616.276 36.3321
 0.507988 606.714 36.1207
 0.508986 562.715 34.6739
 0.509984 656.346 37.3676
 0.510983 617.26 36.3327
 0.511981 597.998 35.8889
 0.51298 614.749 36.1804
 0.513978 579.779 35.246
 0.514977 528.26 33.5661
 0.515975 516.445 33.1486
 0.516973 537.138 33.9014
 0.517972 567.018 34.5775
 0.51897 571.658 34.8886
 0.519969 542.388 33.9721
 0.520967 559.225 34.3314
 0.521966 547.44 34.1831
 0.522964 540.956 33.886
 0.523962 556.614 34.1231
 0.524961 580.426 35.127
 0.525959 574.968 34.8947
 0.526958 585.527 35.1068
 0.527956 550.086 33.9059
 0.528955 546.041 33.836
 0.529953 546.959 33.8679
 0.530952 533.867 33.4423
 0.53195 535.704 33.3836
 0.532948 525.301 33.0346
 0.533947 550.529 33.9564
 0.534945 525.6 33.0869
 0.535944 539.468 33.7446
 0.536942 520.596 33.157
 0.537941 525.571 33.2762
 0.538939 522.504 33.3545
 0.539937 512.324 32.9916
 0.540936 510.152 32.8192
 0.541934 543.155 34.0335
 0.542933 526.637 33.5178
 0.543931 513.3 33.0907
 0.54493 515.967 33.2338
 0.545928 545.856 34.1292
 0.546927 459.729 31.544
 0.547925 474.345 32.0653
 0.548923 496.237 32.4947
 0.549922 494.309 32.4841
 0.55092 496.086 32.7268
 0.551919 487.532 32.2613
 0.552917 528.36 33.8429
 0.553916 479.655 32.0479
 0.554914 447.755 30.7105
 0.555913 440.41 30.7147
 0.556911 466.94 31.8396
 0.557909 471.493 31.7904
 0.558908 466.41 31.6218
 0.559906 489.881 32.4296
 0.560905 489.738 32.3314
 0.561903 481.896 32.2104
 0.562902 495.215 32.4622
 0.5639 494.723 32.4742
 0.564898 481.333 32.1226
 0.565897 422.768 29.9723
 0.566895 460.752 31.2916
 0.567894 470.372 31.6111
 0.568892 436.93 30.3293
 0.569891 430.055 30.3821
 0.570889 488.421 32.3346
 0.571887 544.035 33.7771
 0.572886 463.22 31.3106
 0.573884 432.124 30.2031
 0.574883 468.602 31.4744
 0.575881 443.571 30.6277
 0.57688 426.967 29.9725
 0.577878 416.127 29.4196
 0.578877 471.474 31.4152
 0.579875 446.494 30.5114
 0.580873 425.353 29.8687
 0.581872 437.376 30.4088
 0.58287 421.198 29.6392
 0.583869 454.766 30.7654
 0.584867 432.332 30.0775
 0.585866 413.207 29.3175
 0.586864 417.459 29.6452
 0.587862 424.514 30.0311
 0.588861 445.888 30.7553
 0.589859 427.608 30.1472
 0.590858 438.529 30.5664
 0.591856 416.082 29.7125
 0.592855 409.291 29.5569
 0.593853 427.602 30.2656
 0.594852 431.176 30.3216
 0.59585 413.618 29.7639
 0.596848 435.273 30.5146
 0.597847 400.308 29.5564
 0.598845 441.848 30.8773
 0.599844 385.11 28.6087
 0.600842 389.23 28.9478
 0.601841 433.331 30.5808
 0.602839 403.929 29.3662
 0.603838 415.481 29.8609
 0.604836 442.723 30.808
 0.605834 468.184 31.5372
 0.606833 389.036 28.7536
 0.607831 369.1 27.9716
 0.60883 394.354 29.0622
 0.609828 395.937 29.1804
 0.610827 388.328 28.8258
 0.611825 409.201 29.5968
 0.612823 390.189 28.7054
 0.613822 345.833 27.1463
 0.61482 325.722 26.4439
 0.615819 364.033 27.9593
 0.616817 364.78 27.8296
 0.617816 407.747 29.3237
 0.618814 358.274 27.64
 0.619812 383.621 28.5844
 0.620811 401.87 29.2972
 0.621809 377.171 28.258
 0.622808 331.102 26.3926
 0.623806 335.144 26.592
 0.624805 341.887 26.9248
 0.625803 366.146 27.883
 0.626802 364.227 27.7618
 0.6278 343.546 26.8133
 0.628798 328.738 26.1645
 0.629797 325.785 26.2066
 0.630795 377.568 28.1976
 0.631794 346.92 27.0509
 0.632792 331.319 26.3812
 0.633791 370.293 27.6586
 0.634789 395.611 28.6342
 0.635787 324.909 26.1504
 0.636786 356.733 27.5365
 0.637784 299.112 25.2898
 0.638783 315.451 25.8672
 0.639781 394.468 28.8697
 0.64078 358.714 27.5195
 0.641778 353.879 27.4495
 0.642777 415.55 30.0083
 0.643775 378.059 28.3925
 0.644773 355.221 27.4205
 0.645772 334.155 26.7387
 0.64677 369.574 28.3093
 0.647769 371.916 28.3421
 0.648767 359.697 27.8186
 0.649766 337.053 26.8951
 0.650764 310.623 25.8127
 0.651763 338.105 26.9483
 0.652761 333.141 26.7528
 0.653759 309.838 25.7736
 0.654758 318.813 26.1368
 0.655756 352.01 27.5091
 0.656755 311.932 25.8461
 0.657753 324.364 26.2204
 0.658752 346.482 27.1307
 0.65975 298.392 25.3689
 0.660748 317.879 26.1973
 0.661747 327.401 26.364
 0.662745 314.636 25.8631
 0.663744 337.248 26.8176
 0.664742 313.057 25.7156
 0.665741 278.118 24.2941
 0.666739 345.268 27.0552
 0.667737 316.832 25.9164
 0.668736 364.873 27.8359
 0.669734 331.303 26.5821
 0.670733 302.044 25.4268
 0.671731 307.063 25.5384
 0.67273 305.079 25.4673
 0.673728 310.207 25.7211
 0.674727 298.693 25.1892
 0.675725 313.82 25.5944
 0.676723 301.117 25.1218
 0.677722 369.519 27.813
 0.67872 293.464 24.7876
 0.679719 279.82 24.2379
 0.680717 335.493 26.5992
 0.681716 326.529 26.222
 0.682714 299.173 25.163
 0.683712 299.886 25.0557
 0.684711 293.66 24.8119
 0.685709 279.09 24.3253
 0.686708 277.942 24.2367
 0.687706 229.197 21.925
 0.688705 313.53 25.7054
 0.689703 285.817 24.6082
 0.690702 311.975 25.9236
 0.6917 313.08 25.8503
 0.692698 271.082 24.0186
 0.693697 269.949 24.1604
 0.694695 300.662 25.4417
 0.695694 348.74 27.3146
 0.696692 283.103 24.6536
 0.697691 299.661 25.3436
 0.698689 291.28 25.0157
 0.699688 275.561 24.4204
 0.700686 302.261 25.4224
 0.701684 274.45 24.1798
 0.702683 251.374 23.2149
 0.703681 280.91 24.6114
 0.70468 288.452 25.0698
 0.705678 300.814 25.4226
 0.706677 287.882 24.6807
 0.707675 283.629 24.6338
 0.708673 254.545 23.4382
 0.709672 288.717 24.8549
 0.71067 308.787 25.6899
 0.711669 303.302 25.519
 0.712667 257.055 23.4156
 0.713666 247.34 23.0731
 0.714664 259.116 23.5273
 0.715662 285.064 24.6807
 0.716661 274.962 24.4337
 0.717659 327.368 26.4125
 0.718658 257.811 23.381
 0.719656 297.702 25.1104
 0.720655 285.571 24.621
 0.721653 287.603 24.8771
 0.722652 278.244 24.4024
 0.72365 259.43 23.4033
 0.724648 290.922 24.7331
 0.725647 275.6 24.0245
 0.726645 244.11 22.8167
 0.727644 265.928 23.7394
 0.728642 297.049 24.9978
 0.729641 278.066 24.0311
 0.730639 273.708 23.8913
 0.731638 254.932 23.1294
 0.732636 291.44 24.9339
 0.733634 269.709 23.807
 0.734633 260.387 23.2296
 0.735631 306.054 25.2844
 0.73663 284.208 24.4608
 0.737628 274.945 23.9732
 0.738627 280.918 24.5882
 0.739625 300.098 25.4303
 0.740623 264.231 23.5244
 0.741622 293.164 24.9755
 0.74262 288.664 24.8798
 0.743619 294.902 25.2479
 0.744617 271.978 24.1574
 0.745616 264.951 23.6498
 0.746614 293.077 25.0394
 0.747613 236.659 22.6072
 0.748611 252.518 23.2329
 0.749609 259.518 23.6671
 0.750608 270.069 24.2439
 0.751606 240.983 22.7446
 0.752605 249.967 23.2152
 0.753603 282.723 24.6371
 0.754602 248.632 23.0354
 0.7556 252.939 23.3902
 0.756598 240.488 22.732
 0.757597 269.455 23.8713
 0.758595 275.309 24.2548
 0.759594 280.853 24.5121
 0.760592 255.913 23.6125
 0.761591 254.677 23.4715
 0.762589 248.298 22.9187
 0.763587 277.61 24.2782
 0.764586 222.119 21.7914
 0.765584 250.846 23.1522
 0.766583 239.187 22.6815
 0.767581 224.183 21.8754
 0.76858 246 22.8052
 0.769578 247.805 23.0542
 0.770577 254.805 23.3967
 0.771575 250.185 23.0507
 0.772573 236.49 22.2419
 0.773572 252.642 23.109
 0.77457 247.904 22.8917
 0.775569 308.644 25.6416
 0.776567 262.172 23.4242
 0.777566 261.031 23.4346
 0.778564 258.585 23.4162
 0.779563 244.668 22.6805
 0.780561 253.721 23.063
 0.781559 264.764 23.5985
 0.782558 214.128 21.1587
 0.783556 236.687 22.2609
 0.784555 254.895 23.1512
 0.785553 272.687 23.9362
 0.786552 239.952 22.6252
 0.78755 271.894 24.0438
 0.788548 256.63 23.3119
 0.789547 262.415 23.5991
 0.790545 236.096 22.5056
 0.791544 232.713 22.3621
 0.792542 259.439 23.6041
 0.793541 259.395 23.4337
 0.794539 229.324 22.1253
 0.795538 266.435 23.9434
 0.796536 252.648 23.262
 0.797534 242.555 22.7202
 0.798533 264.892 23.8035
 0.799531 264.168 23.7439
 0.80053 254.515 23.476
 0.801528 264.415 23.831
 0.802527 231.149 22.1767
 0.803525 263.647 23.8738
 0.804523 272.13 24.2284
 0.805522 238.092 22.5209
 0.80652 249.703 23.1252
 0.807519 242.548 22.6386
 0.808517 213.63 21.3688
 0.809516 240.552 22.7425
 0.810514 236.314 22.4746
 0.811512 216.639 21.4938
 0.812511 275.277 24.3098
 0.813509 238.214 22.5744
 0.814508 247.05 22.9671
 0.815506 236.953 22.4932
 0.816505 212.631 21.2405
 0.817503 227.994 22.0981
 0.818502 240.191 22.7214
 0.8195 258.994 23.3767
 0.820498 247.441 22.9174
 0.821497 276.828 24.3121
 0.822495 255.431 23.4376
 0.823494 222.117 21.7133
 0.824492 239.009 22.467
 0.825491 219.874 21.4738
 0.826489 256.764 23.2998
 0.827488 237.91 22.3827
 0.828486 212.917 21.1611
 0.829484 224.865 21.7878
 0.830483 271.96 23.7526
 0.831481 250.488 22.8687
 0.83248 269.153 23.8714
 0.833478 269.508 23.8274
 0.834477 207.257 20.8153
 0.835475 197.501 20.3274
 0.836473 241.816 22.5373
 0.837472 244.573 22.7911
 0.83847 236.921 22.481
 0.839469 244.452 22.871
 0.840467 265.264 23.8105
 0.841466 223.476 21.7426
 0.842464 218.444 21.6006
 0.843463 237.469 22.6348
 0.844461 234.156 22.4932
 0.845459 202.195 20.9181
 0.846458 213.536 21.3729
 0.847456 238.873 22.5781
 0.848455 226.543 22.1016
 0.849453 212.148 21.4282
 0.850452 218.234 21.5762
 0.85145 236.818 22.6354
 0.852448 224.191 22.0704
 0.853447 206.171 21.0018
 0.854445 232.442 22.2985
 0.855444 218.805 21.6229
 0.856442 227.241 22.0185
 0.857441 247.6 23.0505
 0.858439 257.717 23.4142
 0.859437 218.277 21.6744
 0.860436 244.704 22.9523
 0.861434 233.459 22.2465
 0.862433 235.92 22.4927
 0.863431 262.523 23.7273
 0.86443 229.651 22.0892
 0.865428 190.238 20.1137
 0.866427 230.739 22.2149
 0.867425 233.473 22.2448
 0.868423 249.234 22.9878
 0.869422 228.736 22.0478
 0.87042 245.806 22.8782
 0.871419 243.531 22.6912
 0.872417 203.946 20.8171
 0.873416 218.767 21.58
 0.874414 223.059 21.7634
 0.875413 251.295 22.8995
 0.876411 238.219 22.4137
 0.877409 214.201 21.2511
 0.878408 188.47 19.8622
 0.879406 205.196 20.7184
 0.880405 223.798 21.6403
 0.881403 237.912 22.2792
 0.882402 255.461 23.116
 0.8834 217.782 21.3507
 0.884398 271.207 23.8608
 0.885397 249.297 22.8051
 0.886395 225.604 21.7373
 0.887394 205.007 20.889
 0.888392 230.637 22.1178
 0.889391 208.99 21.0831
 0.890389 181.595 19.6797
 0.891387 213.339 21.3491
 0.892386 210.62 21.183
 0.893384 217.772 21.549
 0.894383 213.526 21.3488
 0.895381 226.833 22.0139
 0.89638 248.68 23.1161
 0.897378 234.275 22.4017
 0.898377 231.561 22.2358
 0.899375 201.448 20.8129
 0.900373 246.275 23.0072
 0.901372 242.631 23.0068
 0.90237 215.099 21.5179
 0.903369 195.386 20.3811
 0.904367 206.029 21.0149
 0.905366 198.903 20.7132
 0.906364 228.932 22.1386
 0.907362 237.194 22.548
 0.908361 230.463 22.1851
 0.909359 217.258 21.5631
 0.910358 211.414 21.2213
 0.911356 170.169 19.0423
 0.912355 234.258 22.2997
 0.913353 224.299 21.9189
 0.914352 185.301 19.8775
 0.91535 201.02 20.6664
 0.916348 205.11 20.8488
 0.917347 213.326 21.1653
 0.918345 201.08 20.7635
 0.919344 224.416 21.8089
 0.920342 257.556 23.2633
 0.921341 238.473 22.5067
 0.922339 230.02 22.1286
 0.923338 235.882 22.3949
 0.924336 230.46 22.2492
 0.925334 234.161 22.262
 0.926333 222.573 21.6384
 0.927331 197.481 20.3648
 0.92833 218.128 21.4164
 0.929328 215.207 21.4097
 0.930327 205.915 20.895
 0.931325 231.659 21.9542
 0.932323 215.381 21.2065
 0.933322 195.759 20.2779
 0.93432 203.839 20.7355
 0.935319 202.02 20.6202
 0.936317 199.941 20.4957
 0.937316 205.314 20.7543
 0.938314 210.039 21.0716
 0.939312 213.954 21.3303
 0.940311 216.384 21.5842
 0.941309 208.551 21.0731
 0.942308 239.13 22.4746
 0.943306 216.131 21.434
 0.944305 219.164 21.679
 0.945303 226.545 22.0823
 0.946302 208.464 21.2438
 0.9473 176.078 19.476
 0.948298 184.529 19.8919
 0.949297 204.426 21.0708
 0.950295 182.488 19.8519
 0.951294 205.85 20.9013
 0.952292 161.602 18.5479
 0.953291 174.345 19.3862
 0.954289 198.697 20.6414
 0.955287 235.536 22.4321
 0.956286 244 22.7731
 0.957284 220.206 21.7901
 0.958283 203.038 20.8942
 0.959281 215.038 21.3901
 0.96028 244.23 22.7991
 0.961278 200.925 20.818
 0.962277 198.296 20.6366
 0.963275 200.599 20.8067
 0.964273 207.348 21.099
 0.965272 196.735 20.3109
 0.96627 194.733 20.3518
 0.967269 210.589 21.2489
 0.968267 190.01 19.9399
 0.969266 226.636 21.8598
 0.970264 202.984 20.8004
 0.971263 197.605 20.4785
 0.972261 191.953 20.2535
 0.973259 191.566 20.1671
 0.974258 196.597 20.3894
 0.975256 205.284 20.7925
 0.976255 207.152 20.9078
 0.977253 204.743 20.8235
 0.978252 195.507 20.2686
 0.97925 184.071 19.6239
 0.980248 182.237 19.5813
 0.981247 194.014 20.2418
 0.982245 211.838 21.0078
 0.983244 231.148 22.0871
 0.984242 257.717 23.2659
 0.985241 198.439 20.2086
 0.986239 178.3 19.3554
 0.987237 205.457 20.8144
 0.988236 196.182 20.4597
 0.989234 190.8 20.2546
 0.990233 218.382 21.4697
 0.991231 208.115 21.0156
 0.99223 186.143 20.0437
 0.993228 174.942 19.4168
 0.994227 195.066 20.5421
 0.995225 175.248 19.3624
 0.996223 178.001 19.5225
 0.997222 207.895 21.1993
 0.99822 217.373 21.7043
 0.999219 208.195 20.8906
 1.00022 166.587 18.9124
 1.00122 182.269 19.8882
 1.00221 157.33 18.3822
 1.00321 197.617 20.5819
 1.00421 201.777 20.8336
 1.00521 213.633 21.3669
 1.00621 193.067 20.4236
 1.00721 212.038 21.2996
 1.0082 195.796 20.4213
 1.0092 174.207 19.2719
 1.0102 191.548 20.2096
 1.0112 229.368 22.1721
 1.0122 206.82 20.9985
 1.0132 181.533 19.5578
 1.0142 186.474 20.0496
 1.01519 222.424 21.965
 1.01619 201.986 20.738
 1.01719 201.133 20.7323
 1.01819 195.181 20.4151
 1.01919 202.777 20.7161
 1.02019 205.635 21.0287
 1.02118 187.439 20.0282
 1.02218 192.799 20.1439
 1.02318 163.347 18.5703
 1.02418 170.779 19.0484
 1.02518 201.351 20.7053
 1.02618 179.666 19.5756
 1.02717 179.158 19.4482
 1.02817 155.553 18.0616
 1.02917 157.444 18.3261
 1.03017 179.977 19.3584
 1.03117 156.343 18.1421
 1.03217 208.558 20.9202
 1.03317 197.004 20.2884
 1.03416 213.239 21.0746
 1.03516 167.044 18.7159
 1.03616 161.772 18.4557
 1.03716 197.6 20.415
 1.03816 201.333 20.6057
 1.03916 195.679 20.2982
 1.04015 188.419 20.0949
 1.04115 188.301 20.0752
 1.04215 180.498 19.6537
 1.04315 170.676 19.0591
 1.04415 186.467 19.851
 1.04515 179.694 19.7016
 1.04615 177.332 19.6219
 1.04714 174.581 19.2626
 1.04814 201.119 20.8042
 1.04914 195.825 20.5645
 1.05014 198.772 20.6651
 1.05114 183.625 19.8759
 1.05214 186.208 20.0037
 1.05313 218.22 21.5116
 1.05413 173.774 19.3089
 1.05513 202.133 20.763
 1.05613 161.368 18.4451
 1.05713 166.999 18.7967
 1.05813 143.119 17.3769
 1.05913 169.28 19.0735
 1.06012 150.204 17.9311
 1.06112 161.196 18.4017
 1.06212 171.218 19.0973
 1.06312 186.607 20.1314
 1.06412 173.822 19.1077
 1.06512 161.147 18.4525
 1.06611 191.192 20.1276
 1.06711 212.662 21.3771
 1.06811 188.717 20.0779
 1.06911 193.592 20.268
 1.07011 174.656 19.1478
 1.07111 174.344 19.1813
 1.0721 165.733 18.8201
 1.0731 196.446 20.5262