File: pydatalab/example_data/XRD/example_ocx.xy
theta,intensity
5.0000,2.732
5.0800,2.353
5.1600,2.360
5.2400,2.272
5.3200,2.198
5.4000,2.135
5.4800,2.261
5.5600,2.182
5.6400,2.113
5.7200,2.088
5.8000,2.034
5.8800,1.930
5.9600,1.932
6.0400,1.894
6.1200,1.816
6.2000,1.818
6.2800,1.783
6.3600,1.673
6.4400,1.609
6.5200,1.623
6.6000,1.562
6.6800,1.582
6.7600,1.559
6.8400,1.512
6.9200,1.488
7.0000,1.490
7.0800,1.488
7.1600,1.466
7.2400,1.457
7.3200,1.472
7.4000,1.459
7.4800,1.491
7.5600,1.458
7.6400,1.474
7.7200,1.415
7.8000,1.433
7.8800,1.431
7.9600,1.427
8.0400,1.460
8.1200,1.433
8.2000,1.475
8.2800,1.490
8.3600,1.443
8.4400,1.370
8.5200,1.437
8.6000,1.445
8.6800,1.399
8.7600,1.433
8.8400,1.434
8.9200,1.408
9.0000,1.354
9.0800,1.421
9.1600,1.454
9.2400,1.411
9.3200,1.406
9.4000,1.381
9.4800,1.393
9.5600,1.382
9.6400,1.371
9.7200,1.369
9.8000,1.377
9.8800,1.353
9.9600,1.383
10.0400,1.422
10.1200,1.370
10.2000,1.343
10.2800,1.422
10.3600,1.363
10.4400,1.350
10.5200,1.375
10.6000,1.349
10.6800,1.354
10.7600,1.343
10.8400,1.342
10.9200,1.327
11.0000,1.339
11.0800,1.297
11.1600,1.326
11.2400,1.345
11.3200,1.353
11.4000,1.363
11.4800,1.359
11.5600,1.326
11.6400,1.360
11.7200,1.338
11.8000,1.326
11.8800,1.321
11.9600,1.328
12.0400,1.341
12.1200,1.332
12.2000,1.300
12.2800,1.269
12.3600,1.299
12.4400,1.267
12.5200,1.320
12.6000,1.250
12.6800,1.268
12.7600,1.289
12.8400,1.275
12.9200,1.308
13.0000,1.283
13.0800,1.297
13.1600,1.280
13.2400,1.272
13.3200,1.261
13.4000,1.245
13.4800,1.286
13.5600,1.216
13.6400,1.267
13.7200,1.300
13.8000,1.299
13.8800,1.243
13.9600,1.258
14.0400,1.246
14.1200,1.230
14.2000,1.245
14.2800,1.231
14.3600,1.208
14.4400,1.251
14.5200,1.223
14.6000,1.171
14.6800,1.202
14.7600,1.245
14.8400,1.230
14.9200,1.194
15.0000,1.255
15.0800,1.194
15.1600,1.223
15.2400,1.227
15.3200,1.217
15.4000,1.194
15.4800,1.234
15.5600,1.219
15.6400,1.225
15.7200,1.191
15.8000,1.216
15.8800,1.211
15.9600,1.192
16.0400,1.188
16.1200,1.180
16.2000,1.198
16.2800,1.212
16.3600,1.177
16.4400,1.211
16.5200,1.176
16.6000,1.205
16.6800,1.173
16.7600,1.190
16.8400,1.193
16.9200,1.202
17.0000,1.205
17.0800,1.269
17.1600,1.176
17.2400,1.221
17.3200,1.231
17.4000,1.187
17.4800,1.176
17.5600,1.223
17.6400,1.139
17.7200,1.155
17.8000,1.230
17.8800,1.202
17.9600,1.172
18.0400,1.176
18.1200,1.175
18.2000,1.159
18.2800,1.168
18.3600,1.147
18.4400,1.199
18.5200,1.194
18.6000,1.179
18.6800,1.167
18.7600,1.171
18.8400,1.145
18.9200,1.175
19.0000,1.151
19.0800,1.136
19.1600,1.173
19.2400,1.134
19.3200,1.148
19.4000,1.175
19.4800,1.153
19.5600,1.138
19.6400,1.191
19.7200,1.118
19.8000,1.143
19.8800,1.192
19.9600,1.177
20.0400,1.147
20.1200,1.172
20.2000,1.151
20.2800,1.225
20.3600,1.160
20.4400,1.149
20.5200,1.085
20.6000,1.170
20.6800,1.134
20.7600,1.127
20.8400,1.160
20.9200,1.138
21.0000,1.091
21.0800,1.155
21.1600,1.114
21.2400,1.124
21.3200,1.157
21.4000,1.110
21.4800,1.086
21.5600,1.086
21.6400,1.113
21.7200,1.096
21.8000,1.113
21.8800,1.153
21.9600,1.084
22.0400,1.087
22.1200,1.074
22.2000,1.102
22.2800,1.072
22.3600,1.069
22.4400,1.064
22.5200,1.030
22.6000,1.030
22.6800,1.064
22.7600,1.016
22.8400,1.032
22.9200,0.971
23.0000,0.991
23.0800,1.062
23.1600,1.026
23.2400,1.031
23.3200,1.012
23.4000,1.004
23.4800,1.002
23.5600,0.942
23.6400,0.971
23.7200,0.972
23.8000,0.947
23.8800,0.987
23.9600,0.954
24.0400,0.934
24.1200,0.989
24.2000,0.976
24.2800,0.919
24.3600,0.930
24.4400,0.915
24.5200,0.930
24.6000,0.964
24.6800,0.869
24.7600,0.908
24.8400,0.885
24.9200,0.909
25.0000,0.889
25.0800,0.908
25.1600,0.873
25.2400,0.864
25.3200,0.868
25.4000,0.894
25.4800,0.869
25.5600,0.855
25.6400,0.847
25.7200,0.837
25.8000,0.905
25.8800,0.816
25.9600,0.834
26.0400,0.805
26.1200,0.862
26.2000,0.823
26.2800,0.802
26.3600,0.764
26.4400,0.826
26.5200,0.792
26.6000,0.794
26.6800,0.783
26.7600,0.773
26.8400,0.808
26.9200,0.781
27.0000,0.752
27.0800,0.765
27.1600,0.746
27.2400,0.753
27.3200,0.787
27.4000,0.761
27.4800,0.750
27.5600,0.742
27.6400,0.732
27.7200,0.748
27.8000,0.729
27.8800,0.776
27.9600,0.726
28.0400,0.747
28.1200,0.700
28.2000,0.722
28.2800,0.741
28.3600,0.710
28.4400,0.714
28.5200,0.732
28.6000,0.703
28.6800,0.689
28.7600,0.707
28.8400,0.708
28.9200,0.703
29.0000,0.712
29.0800,0.714
29.1600,0.712
29.2400,0.681
29.3200,0.685
29.4000,0.659
29.4800,0.665
29.5600,0.680
29.6400,0.654
29.7200,0.643
29.8000,0.670
29.8800,0.648
29.9600,0.714
30.0400,0.701
30.1200,0.620
30.2000,0.658
30.2800,0.669
30.3600,0.640
30.4400,0.661
30.5200,0.642
30.6000,0.662
30.6800,0.661
30.7600,0.606
30.8400,0.622
30.9200,0.616
31.0000,0.635
31.0800,0.625
31.1600,0.645
31.2400,0.610
31.3200,0.597
31.4000,0.602
31.4800,0.623
31.5600,0.612
31.6400,0.636
31.7200,0.563
31.8000,0.613
31.8800,0.612
31.9600,0.586
32.0400,0.607
32.1200,0.580
32.2000,0.601
32.2800,0.597
32.3600,0.575
32.4400,0.587
32.5200,0.579
32.6000,0.583
32.6800,0.604
32.7600,0.579
32.8400,0.593
32.9200,0.587
33.0000,0.566
33.0800,0.569
33.1600,0.571
33.2400,0.529
33.3200,0.562
33.4000,0.545
33.4800,0.531
33.5600,0.544
33.6400,0.551
33.7200,0.547
33.8000,0.517
33.8800,0.563
33.9600,0.568
34.0400,0.541
34.1200,0.561
34.2000,0.545
34.2800,0.542
34.3600,0.584
34.4400,0.528
34.5200,0.546
34.6000,0.503
34.6800,0.529
34.7600,0.515
34.8400,0.528
34.9200,0.525
35.0000,0.531
35.0800,0.535
35.1600,0.543
35.2400,0.491
35.3200,0.508
35.4000,0.515
35.4800,0.492
35.5600,0.537
35.6400,0.495
35.7200,0.550
35.8000,0.510
35.8800,0.484
35.9600,0.515
36.0400,0.516
36.1200,0.488
36.2000,0.497
36.2800,0.489
36.3600,0.501
36.4400,0.489
36.5200,0.513
36.6000,0.503
36.6800,0.530
36.7600,0.491
36.8400,0.492
36.9200,0.518
37.0000,0.516
37.0800,0.495
37.1600,0.493
37.2400,0.490
37.3200,0.518
37.4000,0.526
37.4800,0.512
37.5600,0.539
37.6400,0.505
37.7200,0.499
37.8000,0.553
37.8800,0.512
37.9600,0.541
38.0400,0.580
38.1200,0.644
38.2000,0.642
38.2800,0.611
38.3600,0.614
38.4400,0.608
38.5200,0.633
38.6000,0.698
38.6800,0.729
38.7600,0.832
38.8400,0.880
38.9200,0.967
39.0000,1.130
39.0800,1.237
39.1600,1.431
39.2400,1.749
39.3200,2.140
39.4000,2.466
39.4800,2.855
39.5600,3.312
39.6400,3.694
39.7200,3.683
39.8000,3.778
39.8800,3.517
39.9600,3.235
40.0400,2.735
40.1200,2.327
40.2000,1.766
40.2800,1.454
40.3600,1.209
40.4400,1.021
40.5200,0.918
40.6000,0.765
40.6800,0.724
40.7600,0.682
40.8400,0.604
40.9200,0.591
41.0000,0.565
41.0800,0.554
41.1600,0.549
41.2400,0.529
41.3200,0.486
41.4000,0.498
41.4800,0.473
41.5600,0.479
41.6400,0.470
41.7200,0.462
41.8000,0.466
41.8800,0.423
41.9600,0.453
42.0400,0.422
42.1200,0.434
42.2000,0.432
42.2800,0.447
42.3600,0.464
42.4400,0.414
42.5200,0.426
42.6000,0.417
42.6800,0.427
42.7600,0.401
42.8400,0.448
42.9200,0.407
43.0000,0.376
43.0800,0.410
43.1600,0.404
43.2400,0.420
43.3200,0.388
43.4000,0.405
43.4800,0.409
43.5600,0.427
43.6400,0.385
43.7200,0.421
43.8000,0.390
43.8800,0.411
43.9600,0.410
44.0400,0.392
44.1200,0.454
44.2000,0.446
44.2800,0.462
44.3600,0.465
44.4400,0.469
44.5200,0.446
44.6000,0.477
44.6800,0.485
44.7600,0.491
44.8400,0.487
44.9200,0.503
45.0000,0.542
45.0800,0.548
45.1600,0.598
45.2400,0.598
45.3200,0.604
45.4000,0.677
45.4800,0.720
45.5600,0.788
45.6400,0.875
45.7200,0.975
45.8000,1.042
45.8800,1.130
45.9600,1.255
46.0400,1.318
46.1200,1.311
46.2000,1.370
46.2800,1.365
46.3600,1.303
46.4400,1.273
46.5200,1.182
46.6000,1.053
46.6800,0.931
46.7600,0.828
46.8400,0.741
46.9200,0.662
47.0000,0.579
47.0800,0.507
47.1600,0.526
47.2400,0.464
47.3200,0.422
47.4000,0.392
47.4800,0.365
47.5600,0.405
47.6400,0.374
47.7200,0.368
47.8000,0.355
47.8800,0.358
47.9600,0.324
48.0400,0.313
48.1200,0.314
48.2000,0.300
48.2800,0.307
48.3600,0.305
48.4400,0.316
48.5200,0.311
48.6000,0.298
48.6800,0.296
48.7600,0.283
48.8400,0.295
48.9200,0.276
49.0000,0.262
49.0800,0.283
49.1600,0.300
49.2400,0.267
49.3200,0.298
49.4000,0.284
49.4800,0.254
49.5600,0.269
49.6400,0.274
49.7200,0.259
49.8000,0.267
49.8800,0.264
49.9600,0.268
50.0400,0.277
50.1200,0.244
50.2000,0.245
50.2800,0.264
50.3600,0.252
50.4400,0.254
50.5200,0.250
50.6000,0.263
50.6800,0.264
50.7600,0.251
50.8400,0.261
50.9200,0.253
51.0000,0.254
51.0800,0.246
51.1600,0.245
51.2400,0.234
51.3200,0.233
51.4000,0.244
51.4800,0.247
51.5600,0.243
51.6400,0.277
51.7200,0.248
51.8000,0.246
51.8800,0.251
51.9600,0.246
52.0400,0.238
52.1200,0.220
52.2000,0.246
52.2800,0.248
52.3600,0.227
52.4400,0.233
52.5200,0.251
52.6000,0.237
52.6800,0.233
52.7600,0.228
52.8400,0.245
52.9200,0.226
53.0000,0.257
53.0800,0.239
53.1600,0.236
53.2400,0.214
53.3200,0.236
53.4000,0.239
53.4800,0.232
53.5600,0.228
53.6400,0.232
53.7200,0.238
53.8000,0.251
53.8800,0.202
53.9600,0.230
54.0400,0.242
54.1200,0.208
54.2000,0.242
54.2800,0.249
54.3600,0.227
54.4400,0.219
54.5200,0.235
54.6000,0.221
54.6800,0.218
54.7600,0.232
54.8400,0.221
54.9200,0.232
55.0000,0.220
55.0800,0.224
55.1600,0.210
55.2400,0.229
55.3200,0.218
55.4000,0.205
55.4800,0.225
55.5600,0.232
55.6400,0.225
55.7200,0.219
55.8000,0.205
55.8800,0.211
55.9600,0.215
56.0400,0.214
56.1200,0.225
56.2000,0.195
56.2800,0.205
56.3600,0.208
56.4400,0.213
56.5200,0.210
56.6000,0.214
56.6800,0.223
56.7600,0.206
56.8400,0.214
56.9200,0.192
57.0000,0.220
57.0800,0.202
57.1600,0.213
57.2400,0.203
57.3200,0.214
57.4000,0.209
57.4800,0.207
57.5600,0.216
57.6400,0.194
57.7200,0.197
57.8000,0.192
57.8800,0.212
57.9600,0.227
58.0400,0.199
58.1200,0.206
58.2000,0.202
58.2800,0.195
58.3600,0.222
58.4400,0.210
58.5200,0.208
58.6000,0.208
58.6800,0.195
58.7600,0.220
58.8400,0.184
58.9200,0.219
59.0000,0.207
59.0800,0.217
59.1600,0.193
59.2400,0.189
59.3200,0.218
59.4000,0.192
59.4800,0.199
59.5600,0.201
59.6400,0.228
59.7200,0.206
59.8000,0.209
59.8800,0.212
59.9600,0.224
60.0400,0.204
60.1200,0.197
60.2000,0.192
60.2800,0.225
60.3600,0.202
60.4400,0.208
60.5200,0.183
60.6000,0.183
60.6800,0.211
60.7600,0.211
60.8400,0.192
60.9200,0.223
61.0000,0.198
61.0800,0.207
61.1600,0.215
61.2400,0.193
61.3200,0.209
61.4000,0.208
61.4800,0.206
61.5600,0.202
61.6400,0.203
61.7200,0.202
61.8000,0.202
61.8800,0.224
61.9600,0.225
62.0400,0.211
62.1200,0.210
62.2000,0.225
62.2800,0.217
62.3600,0.194
62.4400,0.199
62.5200,0.231
62.6000,0.205
62.6800,0.211
62.7600,0.214
62.8400,0.231
62.9200,0.225
63.0000,0.229
63.0800,0.210
63.1600,0.225
63.2400,0.227
63.3200,0.243
63.4000,0.220
63.4800,0.246
63.5600,0.235
63.6400,0.201
63.7200,0.237
63.8000,0.236
63.8800,0.214
63.9600,0.212
64.0400,0.227
64.1200,0.237
64.2000,0.256
64.2800,0.263
64.3600,0.242
64.4400,0.269
64.5200,0.261
64.6000,0.267
64.6800,0.270
64.7600,0.264
64.8400,0.252
64.9200,0.268
65.0000,0.242
65.0800,0.269
65.1600,0.298
65.2400,0.290
65.3200,0.284
65.4000,0.308
65.4800,0.283
65.5600,0.310
65.6400,0.292
65.7200,0.325
65.8000,0.346
65.8800,0.328
65.9600,0.338
66.0400,0.365
66.1200,0.388
66.2000,0.383
66.2800,0.386
66.3600,0.442
66.4400,0.466
66.5200,0.491
66.6000,0.527
66.6800,0.549
66.7600,0.578
66.8400,0.615
66.9200,0.648
67.0000,0.671
67.0800,0.695
67.1600,0.763
67.2400,0.808
67.3200,0.824
67.4000,0.886
67.4800,0.882
67.5600,0.882
67.6400,0.833
67.7200,0.857
67.8000,0.866
67.8800,0.860
67.9600,0.874
68.0400,0.822
68.1200,0.812
68.2000,0.822
68.2800,0.822
68.3600,0.810
68.4400,0.830
68.5200,0.940
68.6000,0.957
68.6800,1.209
68.7600,1.768
68.8400,2.115
68.9200,2.617
69.0000,6.346
69.0800,65.575
69.1600,82.244
69.2400,27.260
69.3200,51.240
69.4000,25.989
69.4800,4.099
69.5600,2.063
69.6400,1.501
69.7200,1.250
69.8000,1.000
69.8800,0.935
69.9600,0.797
70.0400,0.734
70.1200,0.709
70.2000,0.670
70.2800,0.619
70.3600,0.645
70.4400,0.577
70.5200,0.542
70.6000,0.558
70.6800,0.540
70.7600,0.479
70.8400,0.450
70.9200,0.454
71.0000,0.398
71.0800,0.458
71.1600,0.420
71.2400,0.401
71.3200,0.410
71.4000,0.370
71.4800,0.356
71.5600,0.349
71.6400,0.341
71.7200,0.335
71.8000,0.328
71.8800,0.321
71.9600,0.333
72.0400,0.305
72.1200,0.292
72.2000,0.300
72.2800,0.252
72.3600,0.284
72.4400,0.261
72.5200,0.274
72.6000,0.258
72.6800,0.246
72.7600,0.261
72.8400,0.274
72.9200,0.248
73.0000,0.265
73.0800,0.227
73.1600,0.225
73.2400,0.238
73.3200,0.238
73.4000,0.239
73.4800,0.232
73.5600,0.231
73.6400,0.225
73.7200,0.220
73.8000,0.211
73.8800,0.214
73.9600,0.221
74.0400,0.202
74.1200,0.206
74.2000,0.217
74.2800,0.220
74.3600,0.209
74.4400,0.199
74.5200,0.188
74.6000,0.194
74.6800,0.217
74.7600,0.189
74.8400,0.189
74.9200,0.212
75.0000,0.189
75.0800,0.193
75.1600,0.202
75.2400,0.204
75.3200,0.193
75.4000,0.183
75.4800,0.195
75.5600,0.200
75.6400,0.174
75.7200,0.178
75.8000,0.187
75.8800,0.182
75.9600,0.167
76.0400,0.193
76.1200,0.179
76.2000,0.175
76.2800,0.184
76.3600,0.178
76.4400,0.188
76.5200,0.191
76.6000,0.173
76.6800,0.166
76.7600,0.175
76.8400,0.178
76.9200,0.183
77.0000,0.168
77.0800,0.194
77.1600,0.183
77.2400,0.181
77.3200,0.185
77.4000,0.167
77.4800,0.178
77.5600,0.168
77.6400,0.177
77.7200,0.180
77.8000,0.167
77.8800,0.163
77.9600,0.184
78.0400,0.196
78.1200,0.171
78.2000,0.189
78.2800,0.183
78.3600,0.190
78.4400,0.176
78.5200,0.188
78.6000,0.194
78.6800,0.201
78.7600,0.192
78.8400,0.179
78.9200,0.190
79.0000,0.199
79.0800,0.204
79.1600,0.210
79.2400,0.227
79.3200,0.219
79.4000,0.210
79.4800,0.242
79.5600,0.214
79.6400,0.228
79.7200,0.233
79.8000,0.232
79.8800,0.249
79.9600,0.280
80.0000,0.272